id,timestamp,acc_x,acc_y,acc_z,gyro_x,gyro_y,gyro_z
0,2024-05-15 21:11:21.810510,-0.13935669,-0.2809099,1.1976194,-0.9140071,0.29817858,0.38759398
1,2024-05-15 21:11:21.824126,-0.15936938,-0.2877435,1.3032962,-0.79183406,0.14057536,0.5757405
2,2024-05-15 21:11:21.837864,-0.1632743,-0.27993366,1.4145863,-0.6818783,0.11980595,0.66920286
3,2024-05-15 21:11:21.853687,-0.12593354,-0.26284966,1.5156566,-0.5047274,0.15096007,0.7425067
4,2024-05-15 21:11:21.876351,-0.05198419,-0.19744232,1.7951021,0.6577492,1.0739775,0.72173727
5,2024-05-15 21:11:21.886484,-0.05515694,-0.18938842,1.7421416,1.6088663,2.0354793,0.86651236
6,2024-05-15 21:11:21.901981,-0.107385196,-0.20793676,1.6208452,2.1329887,2.4056637,0.8689558
7,2024-05-15 21:11:21.923481,-0.2037878,-0.12129646,1.0799838,1.8837557,1.2578479,0.40408736
8,2024-05-15 21:11:21.939077,-0.32239962,-0.059549972,1.1029252,1.6607898,0.41363212,0.2751948
9,2024-05-15 21:11:21.954914,-0.5616062,-0.1483868,1.0916985,1.2753339,-0.27786732,0.269697
10,2024-05-15 21:11:21.974610,-0.74586946,-0.007321717,1.521758,1.828167,-0.22716552,0.52870387
11,2024-05-15 21:11:21.988845,-0.74586946,-0.007321717,1.521758,1.828167,-0.22716552,0.52870387
12,2024-05-15 21:11:22.004008,-0.74586946,-0.007321717,1.521758,1.828167,-0.22716552,0.52870387
13,2024-05-15 21:11:22.019582,-0.74586946,-0.007321717,1.521758,1.828167,-0.22716552,0.52870387
14,2024-05-15 21:11:22.041003,-0.74586946,-0.007321717,1.521758,1.828167,-0.22716552,0.52870387
15,2024-05-15 21:11:22.054516,-0.74586946,-0.007321717,1.521758,1.828167,-0.22716552,0.52870387
16,2024-05-15 21:11:22.070635,-0.74586946,-0.007321717,1.521758,1.828167,-0.22716552,0.52870387
17,2024-05-15 21:11:22.090224,-0.74586946,-0.007321717,1.521758,1.828167,-0.22716552,0.52870387
18,2024-05-15 21:11:22.106913,-0.74586946,-0.007321717,1.521758,1.828167,-0.22716552,0.52870387
19,2024-05-15 21:11:22.122555,-0.74586946,-0.007321717,1.521758,1.828167,-0.22716552,0.52870387
20,2024-05-15 21:11:22.140209,-0.74586946,-0.007321717,1.521758,1.828167,-0.22716552,0.52870387
21,2024-05-15 21:11:22.157304,0.0017084008,-0.32557237,2.4906654,4.4518332,-2.550897,0.26175576
22,2024-05-15 21:11:22.172478,0.14082102,-0.34753752,2.353261,5.222134,-2.618092,-0.15057829
23,2024-05-15 21:11:22.190923,0.23331872,-0.29530928,1.7440941,5.23313,-2.8697686,-0.8268061
24,2024-05-15 21:11:22.206751,0.16107778,-0.23649146,1.6986994,5.250845,-2.7976866,-0.818254
25,2024-05-15 21:11:22.223864,0.1969542,-0.25211114,1.4319144,5.60759,-2.2686772,-0.7852673
26,2024-05-15 21:11:22.239823,0.03904916,-0.27846932,0.93501383,5.8965297,-2.0939696,-0.82253003
27,2024-05-15 21:11:22.256850,0.0056133163,-0.25357547,0.7763766,5.902027,-2.0768654,-0.7974846
28,2024-05-15 21:11:22.273510,-0.020012695,-0.2037878,0.18938842,5.5104628,-2.2173645,-0.51159966
29,2024-05-15 21:11:22.288935,-0.012690976,-0.15790504,-0.2020794,4.643645,-2.4879777,-0.4529566
30,2024-05-15 21:11:22.306838,-0.07492557,-0.10055158,-0.25479576,4.222148,-2.4983625,-0.39370266
31,2024-05-15 21:11:22.323707,-0.107873306,-0.045394648,-0.43442193,3.6748126,-2.3334289,-0.17073683
32,2024-05-15 21:11:22.339621,-0.1415532,0.07858644,-0.590405,3.2386549,-2.3352616,-0.025961773
33,2024-05-15 21:11:22.356537,-0.18304294,0.174745,-0.880345,2.702926,-2.5429556,0.34605515
34,2024-05-15 21:11:22.372140,-0.1210524,0.20110317,-1.0035939,2.2979224,-2.5948792,0.42119157
35,2024-05-15 21:11:22.390384,0.05515694,0.25259924,-1.1295274,1.5306755,-2.2723424,0.269697
36,2024-05-15 21:11:22.407658,0.08029483,0.28383857,-1.1253785,1.3553573,-2.1074088,0.116980694
37,2024-05-15 21:11:22.423470,-0.16766733,0.41977844,-1.1859046,0.93508196,-1.0671052,-0.2519819
38,2024-05-15 21:11:22.440282,-0.366574,0.5320753,-1.3772455,0.22831088,-0.4928919,-0.17806722
39,2024-05-15 21:11:22.455774,-0.43832684,0.6126142,-1.2244657,-0.40576723,0.055665094,0.20555615
40,2024-05-15 21:11:22.473449,-0.3619369,0.57649374,-1.2674198,-0.84314674,0.14118622,0.39920044
41,2024-05-15 21:11:22.490635,-0.38536638,0.5918693,-1.1453912,-1.571909,0.07338019,0.5170974
42,2024-05-15 21:11:22.506217,-0.40269446,0.6109058,-1.0987762,-1.7093537,0.17172949,0.57879484
43,2024-05-15 21:11:22.523665,-0.3128814,0.54891527,-0.8449567,-2.491872,0.55535287,0.8933904
44,2024-05-15 21:11:22.538597,-0.2111095,0.48396555,-0.6238408,-2.873052,0.9047678,1.0100657
45,2024-05-15 21:11:22.556255,-0.09884319,0.3778006,-0.51865214,-3.21758,1.5064701,0.9300423
46,2024-05-15 21:11:22.573901,-0.16498269,0.328257,-0.37584817,-3.3428073,1.8296177,0.79381937
47,2024-05-15 21:11:22.593237,-0.47005424,0.28408262,-0.41221267,-3.3244815,2.1582632,0.8164214
48,2024-05-15 21:11:22.609280,-0.48445365,0.22306833,-0.46322066,-3.9579487,1.9670625,1.2586879
49,2024-05-15 21:11:22.623832,-0.464685,0.12568948,-0.4217309,-4.507727,1.6396387,1.5280794
50,2024-05-15 21:11:22.639718,-0.37804466,-0.06028214,-0.110801995,-5.5681896,0.96279997,2.1022928
51,2024-05-15 21:11:22.655384,-0.16083373,-0.26870704,0.29897013,-6.173557,0.58711785,2.564107
52,2024-05-15 21:11:22.674161,-0.034168016,-0.36681804,0.61114985,-6.251137,0.65614563,2.626415
53,2024-05-15 21:11:22.689590,0.17987019,-0.46419686,1.1009728,-5.67448,1.9805015,2.36863
54,2024-05-15 21:11:22.704730,0.11861181,-0.58869654,1.0902342,-5.315902,3.2230015,2.0002782
55,2024-05-15 21:11:22.720352,0.045638707,-0.6428773,1.1409981,-5.379432,3.7495673,1.9074267
56,2024-05-15 21:11:22.740954,-0.11495096,-0.8093243,1.4209318,-5.6298866,4.14663,2.0949624
57,2024-05-15 21:11:22.753678,-0.09274176,-0.9125605,1.683568,-5.624389,4.1050906,2.2519548
58,2024-05-15 21:11:22.769378,0.006345488,-0.95917547,1.8683193,-5.0642257,3.8356993,2.1212296
59,2024-05-15 21:11:22.789990,0.09835507,-0.8886429,1.8065727,-4.34035,3.5394297,1.6899587
60,2024-05-15 21:11:22.806556,-0.03465613,-0.8752198,1.552021,-3.5492797,3.1594715,1.162782
61,2024-05-15 21:11:22.823938,-0.35534734,-1.0399585,1.1297716,-3.5645514,2.9169579,1.1218541
62,2024-05-15 21:11:22.841421,-0.32410803,-1.0775433,0.9948079,-4.496121,2.6665032,1.4052955
63,2024-05-15 21:11:22.858261,-0.08151512,-1.1224499,1.4743804,-4.3941064,2.2944863,1.1340714
64,2024-05-15 21:11:22.871245,-0.082003236,-1.101949,1.5076026,-3.9665008,2.3549619,0.7504479
65,2024-05-15 21:11:22.884672,-0.41074833,-1.1634514,1.234228,-3.117398,2.4972935,0.25137106
66,2024-05-15 21:11:22.896023,-0.616031,-1.2308112,0.9547824,-3.140611,2.5687647,0.23487769
67,2024-05-15 21:11:22.907431,-0.63604367,-1.2359364,0.78076965,-3.5608861,2.92551,0.3100141
68,2024-05-15 21:11:22.923290,-0.52548575,-1.1605227,1.0177492,-4.835762,4.249866,0.27152961
69,2024-05-15 21:11:22.940455,-0.7746682,-1.0921867,2.3432548,-5.2603135,6.036036,0.06078109
70,2024-05-15 21:11:22.955639,-0.8354385,-0.9267159,2.602474,-3.8919752,4.117919,-0.19272798
71,2024-05-15 21:11:22.973288,-0.87326735,-0.8561833,2.6400588,-3.2951598,2.3311381,-0.19517145
72,2024-05-15 21:11:22.988975,-0.6975461,-0.7060881,2.7162046,-1.9420934,-0.9235519,0.05222898
73,2024-05-15 21:11:23.007598,-0.42319524,-0.66069347,2.6300523,-0.29092458,-1.8557322,-0.09437868
74,2024-05-15 21:11:23.023202,-0.41587353,-0.6348234,2.4508839,0.3303254,-1.8172477,-0.22693644
75,2024-05-15 21:11:23.039786,-0.5528202,-0.5977267,1.9910799,1.5905404,-1.8178586,-0.5128214
76,2024-05-15 21:11:23.056395,-0.607489,-0.603096,1.8841829,1.6766723,-1.8728365,-0.5213735
77,2024-05-15 21:11:23.073226,-0.7256127,-0.64068073,1.7487313,2.3651175,-2.7384326,-0.6123924
78,2024-05-15 21:11:23.089907,-0.81689006,-0.6787537,1.756541,2.9698741,-3.0395892,-0.4914411
79,2024-05-15 21:11:23.107611,-0.8710708,-0.76344156,1.6564776,3.5074356,-2.9913309,-0.30634892
80,2024-05-15 21:11:23.123211,-0.8215272,-0.78345424,1.6191368,3.6509888,-2.8465557,-0.21227567
81,2024-05-15 21:11:23.140580,-0.6309185,-0.85764766,1.671609,3.7487273,-2.6400833,-0.14263703
82,2024-05-15 21:11:23.156527,-0.4702983,-0.9489251,1.8016915,4.156174,-2.5356252,-0.28619036
83,2024-05-15 21:11:23.172226,-0.45248213,-1.0067666,1.8529437,4.32966,-2.6461918,-0.4016439
84,2024-05-15 21:11:23.189882,-0.4407674,-1.1251345,2.0520942,4.789031,-2.7604237,-0.57879484
85,2024-05-15 21:11:23.207029,-0.4876264,-1.2771821,1.9559358,5.553834,-3.1031191,-0.66798115
86,2024-05-15 21:11:23.222590,-0.3863426,-1.2051852,1.494393,5.6607356,-3.656563,-0.72356987
87,2024-05-15 21:11:23.239675,-0.30409533,-1.1292834,1.3601615,5.4597607,-3.8776963,-0.7290677
88,2024-05-15 21:11:23.256554,-0.0690682,-0.99139106,1.3047606,5.170211,-4.0548472,-0.8720101
89,2024-05-15 21:11:23.273201,0.004881145,-0.9276921,1.3218446,5.1341696,-3.8667006,-1.0320568
90,2024-05-15 21:11:23.289676,0.11153416,-0.8442246,1.1883452,5.212971,-3.602196,-1.1823297
91,2024-05-15 21:11:23.305280,0.20281157,-0.7502625,0.8395874,5.0999613,-2.9510136,-1.6630806
92,2024-05-15 21:11:23.323204,0.14570218,-0.6599613,0.72878546,4.8079677,-2.1568887,-1.842675
93,2024-05-15 21:11:23.340158,0.041733786,-0.4842096,0.5979708,4.6631927,-1.7305049,-1.7229455
94,2024-05-15 21:11:23.355455,0.06589546,-0.39756927,0.47762007,4.354095,-1.5912277,-1.5402967
95,2024-05-15 21:11:23.374687,0.023673553,-0.3065359,0.3682824,4.07554,-1.8734473,-1.4272866
96,2024-05-15 21:11:23.387205,0.061014313,-0.21525851,0.345341,3.8880045,-2.0170007,-1.321607
97,2024-05-15 21:11:23.407867,0.10689708,-0.11251039,0.2967736,3.4793358,-1.8801669,-1.2092078
98,2024-05-15 21:11:23.420216,0.15180361,-0.036120474,0.35656762,3.3498323,-1.68469,-1.2250903
99,2024-05-15 21:11:23.435509,0.21599068,0.051496077,0.53427184,3.5312593,-1.0793226,-1.352761
100,2024-05-15 21:11:23.456458,0.18792409,0.043930303,0.44833317,4.0712643,-1.0506119,-1.5763378
101,2024-05-15 21:11:23.470206,0.136428,0.044418417,0.33753118,4.2380304,-1.1098658,-1.674687
102,2024-05-15 21:11:23.485759,-0.2523552,0.13691612,-0.19134088,4.337601,-1.3389403,-1.5464053
103,2024-05-15 21:11:23.506449,-0.30433938,0.340948,-0.5213368,3.57402,-1.8557322,-0.95569867
104,2024-05-15 21:11:23.521593,-0.28115395,0.38683072,-0.55867755,3.287524,-2.1507802,-0.77854776
105,2024-05-15 21:11:23.539615,-0.015375607,0.47444725,-0.6726523,2.2942572,-2.6993372,-0.4633413
106,2024-05-15 21:11:23.555461,0.13325526,0.5228011,-0.6228646,1.7890716,-2.0096703,-0.72418076
107,2024-05-15 21:11:23.574082,0.029286869,0.55770135,-0.5979708,1.7481437,-1.3035101,-0.8940013
108,2024-05-15 21:11:23.589217,-0.07297312,0.5823511,-0.6931531,1.7823521,-1.1605676,-0.8933904
109,2024-05-15 21:11:23.605917,-0.27017137,0.63555557,-1.0380061,1.6015359,-1.1379656,-0.6545421
110,2024-05-15 21:11:23.622022,-0.30970863,0.6829027,-1.3264817,1.2759448,-1.1807262,-0.47616947
111,2024-05-15 21:11:23.637765,-0.29872608,0.7151182,-1.4236165,0.34009922,-1.1440742,-0.17256944
112,2024-05-15 21:11:23.656393,-0.24259292,0.7656381,-1.2361805,-0.29642236,-0.71035993,0.02107485
113,2024-05-15 21:11:23.673526,-0.23942018,0.7639297,-1.1766305,-0.4008803,-0.5387068,0.050396383
114,2024-05-15 21:11:23.690166,-0.26187342,0.77393603,-1.1280631,-0.837649,0.2682462,0.19272798
115,2024-05-15 21:11:23.705378,-0.29067218,0.7600248,-1.0907223,-1.3306172,0.65981084,0.39064834
116,2024-05-15 21:11:23.723654,-0.2323425,0.7102371,-0.939895,-1.7875444,0.9750173,0.5555819
117,2024-05-15 21:11:23.739220,-0.22404456,0.6741166,-0.841784,-1.9616411,1.1381183,0.6044512
118,2024-05-15 21:11:23.757101,-0.20940112,0.58601195,-0.7175588,-2.2310326,1.3537537,0.70707655
119,2024-05-15 21:11:23.772991,-0.19622204,0.55770135,-0.69095653,-2.3312144,1.3720797,0.72418076
120,2024-05-15 21:11:23.790234,-0.13032657,0.48567393,-0.5633146,-2.6769643,1.3280973,0.73639804
121,2024-05-15 21:11:23.806013,-0.114218794,0.42783237,-0.52499765,-3.0324879,1.2034808,0.70280045
122,2024-05-15 21:11:23.822981,-0.10128376,0.39244407,-0.48323336,-3.406948,1.1704942,0.67103547
123,2024-05-15 21:11:23.857738,-0.33069757,0.29018408,-0.1889003,-3.2609513,2.1625392,1.135904
124,2024-05-15 21:11:23.875398,-0.24088451,0.12154051,-0.27212384,-3.653127,2.7104855,1.3142766
125,2024-05-15 21:11:23.893817,-0.2860351,0.0078098318,-0.17742962,-4.0544653,2.675666,1.3814718
126,2024-05-15 21:11:23.906911,-0.34509695,-0.16864355,-0.09884319,-4.885853,2.1057289,1.6606371
127,2024-05-15 21:11:23.920557,-0.36022848,-0.30726805,-0.032459613,-5.694028,1.461266,2.038152
128,2024-05-15 21:11:23.936272,-0.18963248,-0.594798,0.36340126,-6.88155,0.9200394,2.7363708
129,2024-05-15 21:11:23.955924,0.19207305,-0.8215272,1.2608302,-7.1943126,2.2651646,3.0692923
130,2024-05-15 21:11:23.971500,0.28164205,-0.8564274,1.5534854,-6.90293,2.985375,2.9184086
131,2024-05-15 21:11:23.989625,0.32923323,-0.8107887,1.9024873,-5.964641,4.3243914,2.4010057
132,2024-05-15 21:11:24.005204,-0.0370967,-0.8566714,1.5893619,-5.5541396,4.6817474,2.1927009
133,2024-05-15 21:11:24.022937,-0.11836776,-0.90084577,1.3220887,-4.3440156,5.6487474,1.3930782
134,2024-05-15 21:11:24.038563,-0.044662476,-1.1234261,1.5071145,-5.61095,3.632892,1.2599095
135,2024-05-15 21:11:24.054247,0.1300825,-1.0443515,2.0115807,-4.692209,2.504624,0.6649268
136,2024-05-15 21:11:24.072919,-0.088348724,-0.95990765,1.649644,-3.1662674,2.09962,0.0729984
137,2024-05-15 21:11:24.090213,-0.22868164,-0.9747952,1.2676638,-2.8748846,2.1002312,-0.04795292
138,2024-05-15 21:11:24.106296,-0.4685899,-1.0399585,0.75685203,-3.4368806,2.2254584,0.11453723
139,2024-05-15 21:11:24.123432,-0.40489095,-1.1036574,0.9267159,-4.4887905,2.2578342,0.41386122
140,2024-05-15 21:11:24.139504,-0.29506522,-1.1656479,1.1810235,-4.7105346,2.2260692,0.42241332
141,2024-05-15 21:11:24.155215,-0.12032023,-1.1717494,1.5437231,-4.4741297,2.43132,-0.009468411
142,2024-05-15 21:11:24.172907,-0.1889003,-1.1793152,1.5774031,-3.8815904,2.2016346,-0.3222314
143,2024-05-15 21:11:24.189601,-0.21501444,-1.1541772,1.4909762,-3.6647334,1.8845956,-0.48472157
144,2024-05-15 21:11:24.206204,-0.35510328,-1.0616795,1.2964627,-3.6146424,1.0831405,-0.6044512
145,2024-05-15 21:11:24.222835,-0.42075467,-0.98773015,1.3557686,-3.7203221,0.31283936,-0.45540005
146,2024-05-15 21:11:24.239534,-0.41904628,-0.9542943,1.4121457,-3.7007744,0.094149604,-0.36865717
147,2024-05-15 21:11:24.255728,-0.33875147,-0.9333054,1.5110195,-3.566384,-0.017638734,-0.3173445
148,2024-05-15 21:11:24.270862,-0.15204766,-0.89328,1.6406139,-3.094185,0.007406741,-0.43218717
149,2024-05-15 21:11:24.289775,-0.27358818,-0.84153986,1.7323793,-2.1577287,0.5388595,-0.8671232
150,2024-05-15 21:11:24.305217,-0.61847156,-0.735375,1.7853397,-1.7777706,0.9041569,-0.7901542
151,2024-05-15 21:11:24.322373,-0.8613085,-0.6733844,2.025004,-1.2585351,0.4527275,-0.3203988
152,2024-05-15 21:11:24.339344,-0.8361706,-0.66996765,2.06747,-0.9567677,0.038560867,-0.10476339
153,2024-05-15 21:11:24.356118,-0.66191375,-0.66069347,2.174855,-0.15653422,-0.4996114,0.21960606
154,2024-05-15 21:11:24.372561,-0.56795174,-0.67118794,2.2314765,0.34987307,-0.55886537,0.30085114
155,2024-05-15 21:11:24.388139,-0.49348375,-0.72073156,2.3908458,1.7609718,-0.7396815,0.3295618
156,2024-05-15 21:11:24.406195,-0.46663743,-0.8022467,2.0511181,2.9350548,-1.3291664,0.23426682
157,2024-05-15 21:11:24.423735,-0.39268813,-0.88278556,1.8209721,3.3473887,-1.7378353,0.058337633
158,2024-05-15 21:11:24.439431,-0.34753752,-0.91011995,1.8136505,3.51049,-1.7598264,-0.061391957
159,2024-05-15 21:11:24.456120,-0.27554062,-0.9452642,1.7980309,4.084703,-1.3542119,-0.4596761
160,2024-05-15 21:11:24.472607,-0.28749946,-1.0172611,1.7721606,4.299728,-1.2821298,-0.5910121
161,2024-05-15 21:11:24.489865,-0.37243137,-1.080716,1.8180435,4.6491427,-1.3419946,-0.6966918
162,2024-05-15 21:11:24.505126,-0.4183141,-1.2410617,1.9796093,5.3351445,-1.639486,-0.6270532
163,2024-05-15 21:11:24.523405,-0.38829508,-1.3460063,1.8609974,5.6033144,-1.7989218,-0.63071835
164,2024-05-15 21:11:24.539060,-0.40391475,-1.3804183,1.7897328,5.912412,-2.0591505,-0.66248333
165,2024-05-15 21:11:24.556151,-0.36364532,-1.4394802,1.7782621,5.8690405,-2.3749678,-0.6227771
166,2024-05-15 21:11:24.573279,-0.20744865,-1.521758,1.904928,6.325357,-2.2790618,-0.6563747
167,2024-05-15 21:11:24.589175,-0.13740423,-1.500525,1.7406774,6.613685,-2.4061217,-0.73945236
168,2024-05-15 21:11:24.606410,-0.15033926,-1.4150745,1.1727256,6.437756,-3.2564464,-0.87995136
169,2024-05-15 21:11:24.621538,-0.15155955,-1.3499112,1.0599711,6.084676,-3.6406806,-0.9166033
170,2024-05-15 21:11:24.639741,-0.05051985,-1.0982882,1.1522248,5.380959,-3.9497783,-1.0088439
171,2024-05-15 21:11:24.655555,0.050031736,-0.98333716,1.1407541,5.568495,-3.5857027,-1.1725558
172,2024-05-15 21:11:24.672658,0.017572122,-0.7675905,0.56038594,5.711437,-3.0078242,-1.3478742
173,2024-05-15 21:11:24.689429,0.00707766,-0.6833908,0.41611758,5.596595,-2.926579,-1.3539828
174,2024-05-15 21:11:24.706075,-0.01586372,-0.4424758,0.4046469,4.489096,-2.6217573,-1.1976013
175,2024-05-15 21:11:24.723995,-0.010006348,-0.34558508,0.49592432,4.380973,-2.2216406,-1.0497719
176,2024-05-15 21:11:24.737688,0.04759116,-0.27334413,0.37877685,4.3644795,-1.8203021,-0.9636399
177,2024-05-15 21:11:24.755674,0.04759116,-0.27334413,0.37877685,4.3107233,-1.6284903,-0.9239337
178,2024-05-15 21:11:24.771285,0.15570852,-0.13960074,0.24259292,3.7713294,-0.9369909,-0.97097033
179,2024-05-15 21:11:24.790529,0.23380683,-0.107873306,0.25211114,3.745673,-0.9510408,-1.0845913
180,2024-05-15 21:11:24.803597,0.16888762,-0.07980672,0.23795582,3.7896552,-1.1068115,-1.31672
181,2024-05-15 21:11:24.819661,0.16888762,-0.07980672,0.23795582,3.7896552,-1.1068115,-1.31672
182,2024-05-15 21:11:24.839962,-0.06980037,0.19646609,-0.10494461,3.4298556,-1.4482851,-1.2666291
183,2024-05-15 21:11:24.854982,0.009030119,0.34851375,-0.5813749,2.7774515,-1.0151817,-1.0033462
184,2024-05-15 21:11:24.870678,0.06833603,0.36364532,-0.6087093,2.285705,-1.0976485,-1.0002918
185,2024-05-15 21:11:24.889314,0.06443111,0.39805737,-0.49690056,1.5893186,-1.4769958,-1.0705414
186,2024-05-15 21:11:24.905953,0.082247294,0.46639338,-0.32215557,1.3895657,-1.3505467,-1.1181889
187,2024-05-15 21:11:24.922533,0.059305906,0.56038594,-0.49250755,1.5942056,-0.8093201,-1.207986
188,2024-05-15 21:11:24.939138,0.051007964,0.5730769,-0.67997396,1.5172366,-0.7335728,-1.2672399
189,2024-05-15 21:11:24.956434,-0.036852647,0.6548361,-0.84105176,1.2710578,-0.80076796,-1.3973542
190,2024-05-15 21:11:24.972195,-0.3248402,0.7473338,-1.2098223,0.77564615,-0.8985064,-1.2195925
191,2024-05-15 21:11:24.988845,-0.3441207,0.7841864,-1.3384404,0.46838093,-0.9125563,-1.1096367
192,2024-05-15 21:11:25.005943,-0.38341394,0.84153986,-1.3013438,-0.36483926,-0.74823356,-0.74006325
193,2024-05-15 21:11:25.022896,-0.3939084,0.8347063,-1.2984151,-0.57619864,-0.5753587,-0.63621616
194,2024-05-15 21:11:25.038274,-0.41148052,0.8432483,-1.2315434,-0.9665415,-0.18745928,-0.49021935
195,2024-05-15 21:11:25.055885,-0.530611,0.8747317,-1.0626557,-1.4136949,0.30611986,-0.17256944
196,2024-05-15 21:11:25.072565,-0.55184394,0.87253517,-1.0116477,-1.571909,0.52053356,-0.0027488936
197,2024-05-15 21:11:25.088246,-0.5381767,0.84715325,-0.88156533,-1.9280435,0.8430704,0.31978795
198,2024-05-15 21:11:25.106543,-0.5396411,0.8288489,-0.79394877,-2.183996,1.099023,0.60139686
199,2024-05-15 21:11:25.122535,-0.5396411,0.8288489,-0.79394877,-2.183996,1.099023,0.60139686
200,2024-05-15 21:11:25.139197,-0.5396411,0.8288489,-0.79394877,-2.183996,1.099023,0.60139686
201,2024-05-15 21:11:25.155962,-0.5396411,0.8288489,-0.79394877,-2.183996,1.099023,0.60139686
202,2024-05-15 21:11:25.171505,-0.5396411,0.8288489,-0.79394877,-2.183996,1.099023,0.60139686
203,2024-05-15 21:11:25.189205,-0.5396411,0.8288489,-0.79394877,-2.183996,1.099023,0.60139686
204,2024-05-15 21:11:25.204908,-0.5396411,0.8288489,-0.79394877,-2.183996,1.099023,0.60139686
205,2024-05-15 21:11:25.222546,-0.5396411,0.8288489,-0.79394877,-2.183996,1.099023,0.60139686
206,2024-05-15 21:11:25.238174,-0.5396411,0.8288489,-0.79394877,-2.183996,1.099023,0.60139686
207,2024-05-15 21:11:25.256648,-0.5396411,0.8288489,-0.79394877,-2.183996,1.099023,0.60139686
208,2024-05-15 21:11:25.271940,0.06687169,-0.117879644,0.08859278,-4.273155,-0.7922159,2.200642
209,2024-05-15 21:11:25.287726,0.45858356,-0.33191785,0.27480847,-4.5156684,0.56573755,1.8781052
210,2024-05-15 21:11:25.302881,0.6555683,-0.41465324,0.51816404,-4.499175,2.046475,1.1646146
211,2024-05-15 21:11:25.322363,0.44906533,-0.5730769,0.6746047,-4.0569086,4.2199335,-0.098043874
212,2024-05-15 21:11:25.339145,-0.047103047,-0.61066175,0.4544346,-3.956116,4.8045316,-0.47983465
213,2024-05-15 21:11:25.355628,-0.7265889,-0.837635,0.21794313,-6.342767,3.284088,0.74067414
214,2024-05-15 21:11:25.371447,-0.16303024,-1.2164118,2.0193906,-8.243168,1.8442786,1.9214766
215,2024-05-15 21:11:25.389118,-0.16303024,-1.2164118,2.0193906,-8.246834,1.7538705,2.314874
216,2024-05-15 21:11:25.405778,0.3397277,-1.0214101,2.3759582,-4.1937428,2.6390142,1.1255192
217,2024-05-15 21:11:25.421480,-0.1313028,-1.0192136,1.1202533,-3.557221,2.4472024,0.754724
218,2024-05-15 21:11:25.439122,-0.20134723,-1.0070107,0.9406271,-4.3617306,1.7508161,0.999681
219,2024-05-15 21:11:25.455794,0.0056133163,-1.1256225,1.2198286,-5.3507214,0.9896781,1.5891659
220,2024-05-15 21:11:25.473009,0.32972133,-1.1656479,1.6852763,-5.2199965,1.1979831,1.5048665
221,2024-05-15 21:11:25.488182,0.5418376,-1.1470995,1.7831432,-3.951229,1.8937587,0.7620544
222,2024-05-15 21:11:25.506316,0.3521746,-1.1717494,1.149052,-3.1705434,2.3250294,-0.39370266
223,2024-05-15 21:11:25.522200,0.08151512,-1.1907858,0.8876667,-3.370907,2.0886247,-0.7431176
224,2024-05-15 21:11:25.538133,-0.1552204,-1.1805354,0.8896192,-3.6238053,1.8662697,-0.7901542
225,2024-05-15 21:11:25.556778,-0.27090356,-1.1846844,1.3228208,-4.7056475,1.2187525,-0.82924956
226,2024-05-15 21:11:25.572390,-0.3385074,-1.0140883,1.7885126,-4.4851255,1.125901,-0.64965516
227,2024-05-15 21:11:25.589049,-0.28408262,-0.9215907,1.9044397,-4.1864123,1.0519863,-0.57757306
228,2024-05-15 21:11:25.606683,-0.26236153,-0.7944369,2.1480088,-3.439935,0.75021887,-0.44501534
229,2024-05-15 21:11:25.623156,-0.26358184,-0.7168266,2.2078028,-2.2713497,0.06910413,-0.27030787
230,2024-05-15 21:11:25.638029,-0.29774985,-0.66777116,2.0145094,-2.2713497,0.06910413,-0.27030787
231,2024-05-15 21:11:25.656137,-0.2489384,-0.6982783,1.6542811,-1.3275629,-1.2271519,-0.12308934
232,2024-05-15 21:11:25.671380,-0.22428861,-0.714142,1.4072646,-1.263422,-1.6266578,-0.19394971
233,2024-05-15 21:11:25.689032,-0.27041543,-0.69388527,1.3818827,-1.3190107,-1.5460236,-0.19456059
234,2024-05-15 21:11:25.706257,-0.41977844,-0.6570326,1.8012035,-0.7948884,0.10331258,-0.03268129
235,2024-05-15 21:11:25.722335,-0.49738866,-0.6397045,1.867831,-0.3996586,0.51686835,0.12736541
236,2024-05-15 21:11:25.738999,-0.53305155,-0.6223765,1.9830261,0.2264783,0.22059871,0.49693888
237,2024-05-15 21:11:25.754658,-0.48713827,-0.63506746,2.109936,0.5123632,-0.383547,0.6795876
238,2024-05-15 21:11:25.772751,-0.29311275,-0.6831467,2.2971277,1.8739818,-1.5704582,0.8188649
239,2024-05-15 21:11:25.787967,-0.29311275,-0.6831467,2.2971277,2.5282185,-1.4446199,0.7473936
240,2024-05-15 21:11:25.805089,-0.07785426,-0.8181104,1.9193271,3.4695618,-0.9510408,0.42546764
241,2024-05-15 21:11:25.824915,-0.14911897,-0.8351944,1.6081542,3.7304013,-0.64194304,0.11148291
242,2024-05-15 21:11:25.836411,-0.14911897,-0.8351944,1.6081542,3.7304013,-0.64194304,0.11148291
243,2024-05-15 21:11:25.852280,-0.22209209,-0.82958114,1.6008325,3.7358992,-0.5472589,0.06811147
244,2024-05-15 21:11:25.871943,-0.2328306,-0.89083946,1.8038882,4.023006,-0.6278931,0.044898596
245,2024-05-15 21:11:25.888661,-0.153512,-0.957223,2.0577078,4.6845727,-0.28336513,0.14385876
246,2024-05-15 21:11:25.905725,-0.15766099,-1.0362976,2.1118884,5.034599,-0.117820635,0.16218472
247,2024-05-15 21:11:25.921262,-0.1415532,-1.2244657,2.0755239,5.5752144,-0.006032294,0.1731803
248,2024-05-15 21:11:25.938521,-0.19793043,-1.3433216,2.0630767,5.79818,0.07765625,0.030848695
249,2024-05-15 21:11:25.953652,-0.33484653,-1.4841427,2.135318,6.0235896,-0.059788436,0.06688975
250,2024-05-15 21:11:25.972910,-0.3699908,-1.5171208,2.0518503,6.7578497,-0.83864164,0.23487769
251,2024-05-15 21:11:25.988832,-0.33533466,-1.404824,1.434355,7.154912,-2.0151682,0.28496864
252,2024-05-15 21:11:26.005591,-0.3692586,-1.183464,0.83226573,6.4768515,-3.461697,0.42730024
253,2024-05-15 21:11:26.022268,-0.13374338,-0.8840059,0.7941928,5.223356,-4.790329,0.36987892
254,2024-05-15 21:11:26.039562,-0.024405725,-0.79736555,0.91622144,5.083468,-4.6852603,0.21471913
255,2024-05-15 21:11:26.055078,0.16010156,-0.68241453,0.8691184,5.187315,-3.2949307,-0.17562376
256,2024-05-15 21:11:26.072149,0.18109047,-0.6082212,0.590649,5.3265924,-2.41895,-0.37293324
257,2024-05-15 21:11:26.088706,0.183287,-0.53549206,0.30214286,5.052314,-1.2161564,-0.6239988
258,2024-05-15 21:11:26.124652,0.06028214,-0.2818861,0.41855815,3.944204,-0.7934376,-0.5891795
259,2024-05-15 21:11:26.141286,0.010738519,-0.23942018,0.43198135,3.9246564,-0.8441394,-0.48899764
260,2024-05-15 21:11:26.157366,0.054912884,-0.1867038,0.42661208,3.9527562,-1.0909289,-0.4437936
261,2024-05-15 21:11:26.169462,-0.053204484,-0.1683995,0.50034785,4.0254493,-1.5967253,-0.4859433
262,2024-05-15 21:11:26.185547,-0.24478942,-0.077122085,0.37682438,4.424955,-1.589395,-0.121256754
263,2024-05-15 21:11:26.205190,-0.15082738,0.046858992,0.024405725,4.231311,-1.3792573,0.25503623
264,2024-05-15 21:11:26.221857,0.08590815,0.1952458,-0.3743838,3.812868,-1.5044848,0.17989981
265,2024-05-15 21:11:26.238403,0.0039049159,0.2779812,-0.45394647,2.8531988,-1.8673387,-0.1151481
266,2024-05-15 21:11:26.255477,0.025137896,0.39073566,-0.7077965,1.946064,-2.1355085,-0.11759156
267,2024-05-15 21:11:26.272137,0.08005078,0.42978483,-0.6558123,1.3034338,-2.191708,-0.129198
268,2024-05-15 21:11:26.288591,0.18133454,0.41684976,-0.5281704,1.1458305,-1.865506,-0.24098633
269,2024-05-15 21:11:26.304136,0.19963883,0.43173727,-0.6550802,1.1372783,-1.3444381,-0.4804455
270,2024-05-15 21:11:26.322315,0.117635585,0.5428138,-0.81689006,1.0493138,-1.1788936,-0.70646566
271,2024-05-15 21:11:26.337625,0.07028849,0.6577648,-1.1597905,0.8770498,-1.1709523,-0.850019
272,2024-05-15 21:11:26.355464,0.052716363,0.7087728,-1.3499112,0.6553057,-1.0078512,-0.926988
273,2024-05-15 21:11:26.369693,-0.20915705,0.77100736,-1.4546117,0.18921551,-0.5949064,-0.9642508
274,2024-05-15 21:11:26.385590,-0.36510965,0.8730233,-1.5813079,-0.30497447,-0.26381743,-0.58062744
275,2024-05-15 21:11:26.405444,-0.30922052,0.8840059,-1.5593427,-1.0471758,-0.0005345071,-0.34666604
276,2024-05-15 21:11:26.420991,-0.32728076,0.88302964,-1.3677273,-1.3972015,0.1381319,-0.28619036
277,2024-05-15 21:11:26.438277,-0.417826,0.8881548,-1.0751027,-1.9659171,0.49365547,0.036957346
278,2024-05-15 21:11:26.455410,-0.41148052,0.86789805,-0.9967603,-2.3318253,0.83329654,0.34666604
279,2024-05-15 21:11:26.472089,-0.20525214,0.7788172,-0.6985224,-2.4191792,1.0354929,0.37659842
280,2024-05-15 21:11:26.488738,-0.063943,0.67850965,-0.49738866,-2.4362833,1.3861296,0.2275473
281,2024-05-15 21:11:26.504135,-0.08956901,0.66191375,-0.46639338,-2.4381158,1.3977361,0.16279559
282,2024-05-15 21:11:26.521130,-0.30287504,0.63677585,-0.40635532,-2.5156958,1.3342061,0.37110063
283,2024-05-15 21:11:26.538750,-0.26919514,0.56551117,-0.3441207,-2.7398834,1.180268,0.713796
284,2024-05-15 21:11:26.556120,-0.22160399,0.5115745,-0.19256116,-2.8028026,1.0226648,0.86651236
285,2024-05-15 21:11:26.572105,-0.13447554,0.4217309,-0.053936653,-2.7130053,0.62071544,0.9673051
286,2024-05-15 21:11:26.588735,-0.056133166,0.3275248,-0.2135501,-2.8895454,0.60605466,1.0503827
287,2024-05-15 21:11:26.604859,-0.03904916,0.24625377,-0.23258655,-3.2023084,0.5278639,1.0528263
288,2024-05-15 21:11:26.620117,-0.059549972,0.09615856,0.02757847,-3.8400517,0.09353874,1.1786644
289,2024-05-15 21:11:26.638907,0.087616555,-0.0036608586,0.44345203,-3.9322922,0.019013181,1.2910637
290,2024-05-15 21:11:26.654442,0.17376876,-0.06882414,0.6218884,-3.720933,0.1924989,1.2311989
291,2024-05-15 21:11:26.670046,0.17132819,-0.17718557,0.61017364,-3.588986,0.47594038,1.1371256
292,2024-05-15 21:11:26.688625,0.15717287,-0.2626056,0.63701993,-4.24139,0.8827766,1.2519683
293,2024-05-15 21:11:26.704359,0.18841219,-0.3214234,0.76588213,-4.604244,1.2279155,1.38025
294,2024-05-15 21:11:26.722021,0.36096066,-0.41807005,1.3740729,-4.7368016,2.004936,1.4370605
295,2024-05-15 21:11:26.738710,0.3909797,-0.49226347,1.513216,-3.7954586,2.6103036,1.1285735
296,2024-05-15 21:11:26.755340,0.31434575,-0.5406173,0.97552735,-3.4857497,1.8760436,0.82619524
297,2024-05-15 21:11:26.772023,0.22258021,-0.61871564,0.7854067,-3.9585595,1.2541827,0.7706065
298,2024-05-15 21:11:26.789675,0.073949344,-0.7258568,0.9123165,-5.039791,1.1344532,1.0821478
299,2024-05-15 21:11:26.805314,0.14130914,-0.73049384,1.3379524,-5.3782105,1.5803847,1.3466524
300,2024-05-15 21:11:26.821983,0.4288086,-0.7746682,2.1262877,-4.785671,2.7825675,1.3057245
301,2024-05-15 21:11:26.837658,0.43124917,-0.7492863,2.0869946,-3.253621,2.8179977,0.36132678
302,2024-05-15 21:11:26.855573,0.4036707,-0.7346428,2.0186586,-3.0850222,2.7135398,0.24953845
303,2024-05-15 21:11:26.871395,-0.17669745,-0.66191375,1.0599711,-2.5608997,1.1155163,-0.124311075
304,2024-05-15 21:11:26.889229,-0.32972133,-0.67997396,0.8017586,-3.3660202,0.1961641,0.43951756
305,2024-05-15 21:11:26.904732,-0.22502078,-0.7339106,0.95868737,-4.0190353,0.2682462,0.8579602
306,2024-05-15 21:11:26.925097,-0.020256752,-0.7683227,1.3106179,-4.133267,1.2199743,1.0393872
307,2024-05-15 21:11:26.939784,0.14741059,-0.7934606,1.4565641,-3.9897137,1.914528,0.91904676
308,2024-05-15 21:11:26.957150,0.43637437,-0.8366587,1.526151,-3.5676057,3.1344259,0.13530666
309,2024-05-15 21:11:26.972207,0.4720067,-0.8215272,1.3945737,-3.4613152,3.678707,-0.4016439
310,2024-05-15 21:11:26.988064,0.21452633,-0.8181104,1.2518002,-3.7319286,4.9267044,-1.5922203
311,2024-05-15 21:11:27.003848,-0.49006698,-0.863261,1.6986994,-3.8400517,4.7092366,-2.1975877
312,2024-05-15 21:11:27.021672,-0.7932165,-0.78955567,1.9066361,-3.5187366,3.8259254,-2.1261165
313,2024-05-15 21:11:27.036228,-1.1556416,-0.5725888,2.1167696,-3.1387784,2.835713,-1.9251418
314,2024-05-15 21:11:27.048403,-1.1673564,-0.5032766,2.1153052,-2.1125247,0.5810092,-1.0070114
315,2024-05-15 21:11:27.059946,-1.0236065,-0.48006064,1.9281132,-1.4772248,-0.53748506,-0.34055737
316,2024-05-15 21:11:27.074848,-0.70437974,-0.54915935,1.5151684,-1.0740538,-1.2974014,0.2611449
317,2024-05-15 21:11:27.085625,-0.55770135,-0.56624335,1.3567448,-1.0862712,-1.2613604,0.42180246
318,2024-05-15 21:11:27.100988,-0.51816404,-0.5557489,1.3513755,-1.0972667,-1.1031463,0.4633413
319,2024-05-15 21:11:27.114364,-0.5042528,-0.5816189,1.5547056,-0.7912232,0.1399645,0.5696318
320,2024-05-15 21:11:27.124908,-0.5042528,-0.5816189,1.5547056,-0.7912232,0.1399645,0.5696318
321,2024-05-15 21:11:27.136287,-0.5415935,-0.6060247,1.6957707,-0.5749769,0.29878947,0.6087272
322,2024-05-15 21:11:27.146731,-0.5469628,-0.6048044,1.6960149,0.051159963,-0.089109965,0.6960809
323,2024-05-15 21:11:27.159578,-0.5584335,-0.58869654,1.6877168,0.28512135,-0.44463354,0.7473936
324,2024-05-15 21:11:27.172500,-0.5911371,-0.5742972,1.7470227,0.48181996,-0.7360163,0.8335256
325,2024-05-15 21:11:27.183612,-0.6653306,-0.5742972,1.8688073,1.0816896,-1.2424235,1.1230757
326,2024-05-15 21:11:27.199992,-0.6829027,-0.58772033,1.8646584,1.2771665,-1.4708872,1.2330315
327,2024-05-15 21:11:27.217991,-0.65190744,-0.6685033,1.9334825,1.9423988,-2.22836,1.4975362
328,2024-05-15 21:11:27.233462,-0.522313,-0.81322926,1.888576,2.6888762,-2.9119182,1.4590516
329,2024-05-15 21:11:27.250358,-0.44418418,-0.8766842,1.8114538,2.9283352,-3.1293862,1.3613132
330,2024-05-15 21:11:27.267000,-0.31751847,-0.9552705,1.6513524,3.4164166,-3.279659,0.93126404
331,2024-05-15 21:11:27.283762,-0.2689511,-0.978456,1.6672161,3.5178201,-3.0664673,0.732122
332,2024-05-15 21:11:27.300441,-0.26577836,-0.98626584,1.7253017,3.7988183,-2.5771642,0.46395215
333,2024-05-15 21:11:27.316990,-0.22599702,-1.0445955,1.8207281,4.5813365,-1.7873154,0.35460728
334,2024-05-15 21:11:27.333310,-0.17889395,-1.0389823,1.5093111,4.829348,-1.6926312,0.28069258
335,2024-05-15 21:11:27.350240,-0.1581491,-1.0184815,1.4763328,4.8262935,-1.8013653,0.2874121
336,2024-05-15 21:11:27.366974,-0.059794027,-1.0018855,1.594487,4.5691195,-2.0053942,0.30024028
337,2024-05-15 21:11:27.383586,0.063943,-1.042399,1.8939452,4.579504,-1.8245782,0.26053402
338,2024-05-15 21:11:27.400488,0.1342315,-1.0655844,1.9127377,4.902652,-1.5179238,0.16768251
339,2024-05-15 21:11:27.417058,0.18645974,-1.1222057,1.700896,5.567884,-1.9333122,-0.20616703
340,2024-05-15 21:11:27.433737,0.093717985,-1.0987762,1.3469825,5.631414,-2.723161,-0.50915617
341,2024-05-15 21:11:27.451673,0.02757847,-1.047036,1.1968873,5.490304,-3.1752012,-0.6282749
342,2024-05-15 21:11:27.467342,0.049787678,-0.9535622,1.0611913,5.492748,-3.4171038,-0.8555168
343,2024-05-15 21:11:27.483650,-0.00976229,-0.85179025,0.6833908,5.5776577,-3.0841823,-1.2147056
344,2024-05-15 21:11:27.500444,-0.061014313,-0.7773528,0.48225713,5.343086,-2.4837017,-1.3161092
345,2024-05-15 21:11:27.517323,-0.08395569,-0.5845476,0.35095432,4.85928,-1.5729016,-1.2953397
346,2024-05-15 21:11:27.533421,-0.064919226,-0.40489095,0.22575295,4.136016,-1.0225121,-1.0760391
347,2024-05-15 21:11:27.550259,-0.046614934,-0.3807293,0.22990192,4.032169,-1.0396163,-1.0607675
348,2024-05-15 21:11:27.566535,0.082491346,-0.31776255,0.13960074,3.6656497,-1.1685089,-1.1273518
349,2024-05-15 21:11:27.583739,0.119588055,-0.22331238,-0.01854835,2.8220446,-0.4892267,-1.2910637
350,2024-05-15 21:11:27.600575,0.024161667,-0.10152781,0.038561042,2.7377453,-0.4281402,-1.2696834
351,2024-05-15 21:11:27.617010,0.013667206,0.00976229,-0.021232981,2.5111144,-0.7702247,-1.0595458
352,2024-05-15 21:11:27.633731,0.12373702,0.077122085,-0.004881145,2.3052528,-1.2069933,-1.0461067
353,2024-05-15 21:11:27.650320,0.13398743,0.111046046,0.0,2.2386684,-1.2888494,-1.1169671
354,2024-05-15 21:11:27.666523,0.122272685,0.19548985,0.028066583,2.1934643,-1.4171311,-1.1798862
355,2024-05-15 21:11:27.683816,-0.044174362,0.44467232,-0.20085911,2.4451408,-1.4232397,-1.0198395
356,2024-05-15 21:11:27.700520,-0.03734076,0.5413495,-0.3904916,2.2936463,-1.3835335,-0.9049969
357,2024-05-15 21:11:27.716793,-0.04148973,0.6433654,-0.5630706,1.7310394,-1.6718618,-0.63316184
358,2024-05-15 21:11:27.733359,0.14106509,0.7475779,-0.73927987,1.2869403,-2.0964131,-0.65393126
359,2024-05-15 21:11:27.750486,0.1461903,0.7700311,-0.8015145,1.1696543,-2.2039254,-0.70280045
360,2024-05-15 21:11:27.764536,0.0024405725,0.8918157,-1.0223863,0.9100365,-2.3865743,-0.79137594
361,2024-05-15 21:11:27.781746,0.00048811449,0.9511216,-1.2500917,0.5325218,-1.6297121,-0.9202685
362,2024-05-15 21:11:27.800868,0.029774986,0.92695993,-1.4848748,0.5325218,-1.6297121,-0.9202685
363,2024-05-15 21:11:27.816309,-0.060038086,0.95209783,-1.8651465,-0.42164972,-0.81909394,-1.0729848
364,2024-05-15 21:11:27.832811,-0.34241232,0.9150011,-1.3831029,-2.1644483,-0.7604509,-0.35643986
365,2024-05-15 21:11:27.849732,-0.34704942,0.8781485,-1.1844403,-2.3574817,-0.44952047,-0.21044308
366,2024-05-15 21:11:27.866315,-0.41245672,0.87155896,-0.86618966,-2.473546,0.37575847,-0.010079277
367,2024-05-15 21:11:27.881642,-0.5218249,0.89913744,-0.61895967,-2.4393377,1.3177127,0.25870144
368,2024-05-15 21:11:27.892557,-0.5728329,0.92232287,-0.5718566,-2.4552202,1.5302938,0.4175264
369,2024-05-15 21:11:27.916304,-0.50693744,0.86740994,-0.43539813,-2.832124,1.4191164,0.93737274
370,2024-05-15 21:11:27.933250,-0.50693744,0.86740994,-0.43539813,-2.832124,1.4191164,0.93737274
371,2024-05-15 21:11:27.949534,-0.32728076,0.7585604,-0.13911264,-2.8272371,1.406899,1.0888673
372,2024-05-15 21:11:27.967224,-0.23356278,0.62603736,-0.07248501,-2.5444064,1.1087968,1.2134838
373,2024-05-15 21:11:27.983101,-0.13227904,0.5110864,-0.073461235,-2.5120306,0.9481392,1.1383474
374,2024-05-15 21:11:28.001100,-0.07541369,0.44784504,-0.08322352,-2.5004241,0.89316136,1.0699304
375,2024-05-15 21:11:28.017175,-0.19939478,0.29140437,-0.28627914,-2.9628491,1.2010374,0.93431836
376,2024-05-15 21:11:28.032793,-0.35241866,0.11373068,-0.23039004,-3.7814085,1.5944346,1.3381003
377,2024-05-15 21:11:28.049591,-0.32679266,-0.004881145,-0.15375607,-4.1748056,1.6048193,1.5280794
378,2024-05-15 21:11:28.066572,-0.21257387,-0.16937573,0.19793043,-4.7826166,1.5626696,1.7913623
379,2024-05-15 21:11:28.082832,0.13252309,-0.4339338,1.3030521,-4.141819,2.4862978,1.5378532
380,2024-05-15 21:11:28.098587,0.13252309,-0.4339338,1.3030521,-4.141819,2.4862978,1.5378532
381,2024-05-15 21:11:28.115828,0.11836776,-0.530611,0.9865099,-3.28111,2.495461,0.9410379
382,2024-05-15 21:11:28.132943,-0.153512,-0.81542575,0.66923547,-4.859586,1.084973,0.70402217
383,2024-05-15 21:11:28.150606,-0.073949344,-0.93525785,1.3328272,-5.2688656,0.95791304,0.88239485
384,2024-05-15 21:11:28.166230,0.033923957,-0.944288,1.6127913,-4.8375945,1.6390278,0.9477574
385,2024-05-15 21:11:28.183200,0.11177822,-0.92183477,1.6384172,-3.8150063,2.150322,0.636827
386,2024-05-15 21:11:28.199833,0.064919226,-0.93208516,1.3926212,-3.367853,2.0886247,0.41080686
387,2024-05-15 21:11:28.215504,-0.1889003,-1.0614355,0.8222594,-3.706883,1.5712217,0.35888332
388,2024-05-15 21:11:28.233106,-0.1889003,-1.0614355,0.8222594,-3.706883,1.5712217,0.35888332
389,2024-05-15 21:11:28.249890,-0.1889003,-1.0614355,0.8222594,-3.706883,1.5712217,0.35888332
390,2024-05-15 21:11:28.266504,-0.1889003,-1.0614355,0.8222594,-3.706883,1.5712217,0.35888332
391,2024-05-15 21:11:28.283142,-0.1889003,-1.0614355,0.8222594,-3.706883,1.5712217,0.35888332
392,2024-05-15 21:11:28.299815,-0.1889003,-1.0614355,0.8222594,-3.706883,1.5712217,0.35888332
393,2024-05-15 21:11:28.316489,0.13667206,-0.9220788,1.6357325,-3.022714,3.3048573,-0.45845437
394,2024-05-15 21:11:28.333118,0.13667206,-0.9220788,1.6357325,-3.022714,3.3048573,-0.45845437
395,2024-05-15 21:11:28.349778,0.13667206,-0.9220788,1.6357325,-3.022714,3.3048573,-0.45845437
396,2024-05-15 21:11:28.366442,0.13667206,-0.9220788,1.6357325,-3.022714,3.3048573,-0.45845437
397,2024-05-15 21:11:28.383113,0.13667206,-0.9220788,1.6357325,-3.022714,3.3048573,-0.45845437
398,2024-05-15 21:11:28.399750,-0.6663068,-0.77954936,1.2151915,-2.9933925,1.0635928,-0.7254025
399,2024-05-15 21:11:28.415949,-0.50669336,-0.85447496,1.0992644,-2.89993,0.30062205,-0.43585235
400,2024-05-15 21:11:28.432573,-0.35437113,-0.9164654,0.9921232,-2.8492281,-0.41836634,-0.28252518
401,2024-05-15 21:11:28.449753,-0.36022848,-0.939895,1.0438634,-2.777757,-0.46662468,-0.2312125
402,2024-05-15 21:11:28.466112,-0.33045352,-0.95331806,1.1224499,-2.6238189,-0.53015465,-0.22204952
403,2024-05-15 21:11:28.483069,-0.34119204,-0.974063,1.1322122,-2.3226624,-0.7396815,-0.33261612
404,2024-05-15 21:11:28.499758,-0.49226347,-0.8730233,1.3037844,-2.1687243,-0.5619197,-0.37843102
405,2024-05-15 21:11:28.515897,-0.5708804,-0.7863829,1.5554379,-1.7905988,-0.2045635,-0.19211712
406,2024-05-15 21:11:28.532599,-0.5635587,-0.68583137,1.9107853,-1.3691018,0.03733914,-0.13591751
407,2024-05-15 21:11:28.549769,-0.5635587,-0.68583137,1.9107853,-0.8706357,0.2242639,-0.105374254
408,2024-05-15 21:11:28.566404,-0.5916253,-0.649955,1.8317106,0.072540246,0.32933274,-0.057726767
409,2024-05-15 21:11:28.583072,-0.64482975,-0.6633781,1.7572733,0.5331327,-0.022525655,0.112704635
410,2024-05-15 21:11:28.599441,-0.61871564,-0.7060881,1.7199324,0.9460775,-0.6724863,0.14996742
411,2024-05-15 21:11:28.616146,-0.6980342,-0.684367,1.6825917,1.3767376,-1.1550698,0.29840767
412,2024-05-15 21:11:28.632932,-0.77198356,-0.6868076,1.662823,1.6339118,-1.3316098,0.5476407
413,2024-05-15 21:11:28.649699,-0.84715325,-0.77344793,1.7533684,2.1122193,-1.7182876,0.945314
414,2024-05-15 21:11:28.665787,-0.86106443,-0.9054829,1.8273177,2.620459,-2.173993,1.2470814
415,2024-05-15 21:11:28.682663,-0.78809136,-1.1351408,2.1240911,3.8324158,-2.2051473,1.6197093
416,2024-05-15 21:11:28.699650,-0.67948586,-1.285236,2.1970644,4.8916564,-1.8410715,1.7314975
417,2024-05-15 21:11:28.716372,-0.5845476,-1.3574768,2.0752797,5.475643,-1.7219528,1.7327193
418,2024-05-15 21:11:28.732898,-0.44540447,-1.426301,1.8561163,5.8885884,-1.6730835,1.6655241
419,2024-05-15 21:11:28.749678,0.042954076,-1.2432581,1.0311724,5.1885366,-1.8746691,0.5439755
420,2024-05-15 21:11:28.766231,-0.00073217176,-1.0526494,1.5129719,4.4188466,-1.7970892,0.070554934
421,2024-05-15 21:11:28.783011,-0.024893839,-1.0426431,1.9600847,4.711451,-1.5619061,-0.12736541
422,2024-05-15 21:11:28.800529,-0.24015234,-1.0709537,1.9720436,5.484195,-1.585119,-0.19211712
423,2024-05-15 21:11:28.833045,-0.27090356,-1.0018855,1.490244,5.380959,-2.918027,-0.06811147
424,2024-05-15 21:11:28.849037,-0.23966423,-0.9076794,1.5161446,5.278945,-2.936353,-0.17806722
425,2024-05-15 21:11:28.866595,-0.45809543,-0.83055735,1.5761827,5.631414,-2.4665976,0.086437434
426,2024-05-15 21:11:28.881546,-0.5618503,-0.78931165,1.5371336,6.0523,-2.197206,0.49388456
427,2024-05-15 21:11:28.899017,-0.47103047,-0.80761594,1.0316606,6.682713,-2.165441,1.4278975
428,2024-05-15 21:11:28.915906,-0.2523552,-0.812009,0.5567251,6.514725,-2.6962829,1.6954565
429,2024-05-15 21:11:28.932433,0.28749946,-0.56673145,0.038316987,4.081649,-4.1898484,0.8872818
430,2024-05-15 21:11:28.949227,0.33948365,-0.4097721,0.447601,3.5446982,-3.8538725,0.2837469
431,2024-05-15 21:11:28.966237,0.33948365,-0.4097721,0.447601,3.5098789,-3.7127626,0.17134771
432,2024-05-15 21:11:28.982890,0.16888762,-0.3585201,0.6411689,3.9332087,-1.8496236,-0.82802784
433,2024-05-15 21:11:28.999583,0.07834238,-0.30043447,0.47273886,4.0828705,-1.4745524,-0.98929626
434,2024-05-15 21:11:29.015703,0.020012695,-0.24991462,0.2818861,3.903887,-1.8141934,-1.0235047
435,2024-05-15 21:11:29.032911,-0.019036464,-0.20012695,0.21989559,3.7804923,-2.0512092,-0.99173975
436,2024-05-15 21:11:29.049549,-0.20403185,-0.0690682,0.20012695,3.5013268,-2.3004422,-0.5726862
437,2024-05-15 21:11:29.066202,-0.31019676,-0.0078098318,0.200371,3.5068247,-2.4213934,-0.24220806
438,2024-05-15 21:11:29.082759,0.09518232,0.099087246,-0.31873876,3.088382,-3.1574862,0.37598756
439,2024-05-15 21:11:29.099558,0.36681804,0.17376876,-0.48713827,2.3229678,-3.6730564,0.020463986
440,2024-05-15 21:11:29.116311,0.22453266,0.31361356,-0.20988922,1.6418531,-3.3920584,-0.6075055
441,2024-05-15 21:11:29.132510,0.08542004,0.39976576,-0.10714114,1.6491834,-2.7225502,-0.65270954
442,2024-05-15 21:11:29.149510,-0.073217176,0.49470404,-0.28920785,1.7829629,-2.0640373,-0.5018258
443,2024-05-15 21:11:29.166159,-0.039537273,0.5530642,-0.5044969,1.5544994,-2.1666627,-0.36926803
444,2024-05-15 21:11:29.182815,0.018792408,0.61871564,-0.7370834,0.6656904,-2.990109,-0.25381452
445,2024-05-15 21:11:29.199492,-0.04612682,0.68876004,-0.6018757,0.25579983,-3.433597,-0.20861048
446,2024-05-15 21:11:29.215698,-0.065407336,0.74538136,-0.5467188,0.26251933,-3.4177146,-0.1853976
447,2024-05-15 21:11:29.232814,-0.16595893,0.863505,-0.8090803,0.61926466,-2.5655577,0.013744468
448,2024-05-15 21:11:29.249484,-0.23966423,0.8761961,-1.2259301,0.39019018,-2.0267744,0.1731803
449,2024-05-15 21:11:29.266137,-0.26870704,0.85960007,-1.3935974,0.07803804,-1.9302578,0.25137106
450,2024-05-15 21:11:29.282822,-0.22868164,0.884494,-1.4580284,-0.6818783,-1.6773596,0.3631594
451,2024-05-15 21:11:29.299522,-0.20134723,0.89083946,-1.2405735,-1.0129673,-0.7726682,0.2312125
452,2024-05-15 21:11:29.316127,-0.27993366,0.9113403,-1.1014608,-1.0019717,0.110032104,0.1994475
453,2024-05-15 21:11:29.331409,-0.33826336,0.90182203,-1.0692453,-0.99464136,1.20287,0.37048978
454,2024-05-15 21:11:29.349208,-0.31141704,0.884738,-1.0333688,-1.2903001,1.8931477,0.6197228
455,2024-05-15 21:11:29.366144,-0.22892569,0.81689006,-0.85813576,-1.4711162,2.1399374,0.763887
456,2024-05-15 21:11:29.382771,-0.16351835,0.7861389,-0.7766207,-1.7417295,2.5345562,0.9062186
457,2024-05-15 21:11:29.399416,-0.082003236,0.718291,-0.6560564,-2.0239494,2.7550786,0.82924956
458,2024-05-15 21:11:29.416110,-0.16351835,0.6658187,-0.39927766,-2.0813706,2.9010754,0.7993172
459,2024-05-15 21:11:29.432307,-0.19280522,0.6477585,-0.38194957,-2.0599904,3.0507374,0.86162543
460,2024-05-15 21:11:29.450332,-0.18401916,0.5391529,-0.46273252,-2.3648121,3.2755358,1.0461067
461,2024-05-15 21:11:29.465956,-0.13569583,0.41587353,-0.38609856,-2.8266263,3.273703,1.1078042
462,2024-05-15 21:11:29.482718,-0.09396204,0.32508424,-0.25040275,-3.1186197,3.1912365,1.0699304
463,2024-05-15 21:11:29.499451,-0.18987654,0.16693515,-0.12398108,-3.5541668,2.8503735,1.0772609
464,2024-05-15 21:11:29.516054,-0.16107778,0.012202863,0.14472595,-4.1772494,2.1576524,1.42973
465,2024-05-15 21:11:29.532739,-0.062478654,-0.046614934,0.29921418,-4.317748,2.0672443,1.5103643
466,2024-05-15 21:11:29.549400,-0.04881145,-0.23405088,0.5913812,-4.461302,2.467972,1.4645494
467,2024-05-15 21:11:29.565544,-0.11836776,-0.40611124,0.7771088,-5.0703344,3.3036356,1.7595973
468,2024-05-15 21:11:29.582154,-0.11836776,-0.40611124,0.7771088,-5.0703344,3.3036356,1.7595973
469,2024-05-15 21:11:29.598863,-0.12032023,-0.5840595,1.0724181,-5.511379,3.791717,1.9715676
470,2024-05-15 21:11:29.615438,0.049299564,-0.6433654,2.1350737,-4.689154,4.558353,1.7889189
471,2024-05-15 21:11:29.632167,0.110557936,-0.5669755,2.2851691,-3.3794591,4.3818126,1.4395039
472,2024-05-15 21:11:29.648799,0.0024405725,-0.624573,1.4306941,-2.1888828,3.3408983,1.0522153
473,2024-05-15 21:11:29.664795,0.05027579,-0.60089946,1.0370297,-2.886491,2.1307743,0.83169305
474,2024-05-15 21:11:29.681838,-0.04148973,-0.7363512,0.94550824,-3.271336,1.8253417,0.795652
475,2024-05-15 21:11:29.698891,-0.07370529,-0.76539403,1.1485639,-3.5944839,1.7117208,0.81153446
476,2024-05-15 21:11:29.715610,-0.09664667,-0.82958114,1.1795592,-3.4252741,2.0440314,0.8359691
477,2024-05-15 21:11:29.732697,-0.07443746,-0.84666514,1.1646717,-3.3599117,2.272495,0.80664754
478,2024-05-15 21:11:29.751316,-0.12983845,-0.9296446,1.072174,-3.2200234,2.49485,0.56291234
479,2024-05-15 21:11:29.766571,-0.25284332,-0.9433118,1.003838,-3.6329684,2.5962536,0.5348125
480,2024-05-15 21:11:29.782310,-0.25015867,-0.9664972,1.1139078,-3.8577666,2.6640596,0.59223384
481,2024-05-15 21:11:29.799658,-0.0976229,-0.9545384,1.490488,-3.9457314,2.9413924,0.4529566
482,2024-05-15 21:11:29.817634,-0.08419975,-0.89620876,1.700896,-3.4930801,3.170467,0.07544186
483,2024-05-15 21:11:29.832360,-0.22135992,-0.84983784,1.6476915,-2.9823968,3.0330224,-0.17440203
484,2024-05-15 21:11:29.849626,-0.32117933,-0.7844305,1.4111695,-2.4674375,2.2254584,-0.25503623
485,2024-05-15 21:11:29.865422,-0.358032,-0.7773528,1.1287953,-2.4637723,1.4032339,-0.25320363
486,2024-05-15 21:11:29.882600,-0.35656762,-0.79394877,1.0826685,-2.5321891,1.2334133,-0.2648101
487,2024-05-15 21:11:29.899288,-0.38170552,-0.8007824,0.9987128,-2.832124,1.0513754,-0.33567044
488,2024-05-15 21:11:29.915635,-0.46761367,-0.8095684,1.0921867,-3.1155655,1.0611492,-0.25625798
489,2024-05-15 21:11:29.932591,-0.4888467,-0.81518173,1.1744341,-3.1656563,1.022054,-0.20372356
490,2024-05-15 21:11:29.949259,-0.48128092,-0.7888235,1.4367956,-3.0373747,0.8253553,-0.08582657
491,2024-05-15 21:11:29.965479,-0.43417785,-0.709749,1.5976598,-2.6201537,0.7758752,-0.022296581
492,2024-05-15 21:11:29.982585,-0.39268813,-0.64434165,1.7079737,-2.3751967,0.85589856,-0.021685716
493,2024-05-15 21:11:29.999236,-0.4183141,-0.60163164,1.8907725,-1.73501,0.94080883,-0.087659165
494,2024-05-15 21:11:30.015661,-0.4429639,-0.5879644,2.0110927,-0.8229882,0.67508245,-0.16157386
495,2024-05-15 21:11:30.032595,-0.44516042,-0.58576787,2.0230515,-0.44730607,0.53275084,-0.18600847
496,2024-05-15 21:11:30.049178,-0.50742555,-0.5640468,2.0259802,0.3492622,0.11614075,-0.18600847
497,2024-05-15 21:11:30.065399,-0.5723447,-0.58381546,1.9691149,0.957684,-0.51671565,0.0070249503
498,2024-05-15 21:11:30.082339,-0.5584335,-0.58479166,1.9805855,1.1507174,-0.741514,0.06078109
499,2024-05-15 21:11:30.100233,-0.5555048,-0.6348234,2.047213,1.8122845,-1.3022883,0.14935656
500,2024-05-15 21:11:30.115673,-0.5601419,-0.7248805,1.9381196,2.6387851,-1.7805958,0.0888809
501,2024-05-15 21:11:30.132072,-0.5555048,-0.74440515,1.802912,2.8916833,-1.8850538,0.09865474
502,2024-05-15 21:11:30.149209,-0.5386648,-0.8000502,1.7458025,3.137862,-1.9992856,0.090713486
503,2024-05-15 21:11:30.165361,-0.46614933,-0.86204064,1.9310418,3.450014,-2.17888,0.038179077
504,2024-05-15 21:11:30.182337,-0.49128726,-0.9699141,2.0394034,3.7920988,-2.3034966,-0.01863139
505,2024-05-15 21:11:30.199148,-0.57917833,-1.1644276,1.9981577,4.571563,-2.6046531,-0.18600847
506,2024-05-15 21:11:30.215665,-0.69583774,-1.2569253,1.7833872,4.8177414,-2.7500389,-0.2507602
507,2024-05-15 21:11:30.233178,-0.5188962,-1.1768746,1.7541004,5.1415,-3.0872366,-0.23060162
508,2024-05-15 21:11:30.249192,-0.4588276,-1.152957,1.8219483,5.490915,-2.4904213,-0.24037547
509,2024-05-15 21:11:30.266178,-0.32606047,-1.1583261,1.5180972,5.735261,-2.3523657,-0.13041973
510,2024-05-15 21:11:30.282490,-0.27310005,-1.1285512,1.3782218,5.218469,-3.0426433,-0.2519819
511,2024-05-15 21:11:30.299110,-0.22624107,-1.029464,1.3267257,4.919145,-3.5771506,-0.36132678
512,2024-05-15 21:11:30.315414,-0.153512,-0.9977366,1.505162,4.769483,-4.263152,-0.67103547
513,2024-05-15 21:11:30.332419,-0.13154685,-0.99407566,1.5207816,4.853172,-4.2546,-0.7351763
514,2024-05-15 21:11:30.349109,-0.012935034,-0.9542943,1.2447225,5.31804,-3.8825831,-0.95447695
515,2024-05-15 21:11:30.365773,0.11251039,-0.8039551,0.80761594,5.2038083,-3.1721468,-1.20371
516,2024-05-15 21:11:30.382855,0.12007617,-0.7783291,0.7492863,5.1476088,-2.9736156,-1.2525792
517,2024-05-15 21:11:30.399089,0.094206095,-0.58576787,0.49738866,4.3321037,-1.6315447,-1.4785993
518,2024-05-15 21:11:30.415679,-0.108117364,-0.45980385,0.83275384,4.162283,-0.9168324,-1.280679
519,2024-05-15 21:11:30.432401,-0.108117364,-0.45980385,0.83275384,4.162283,-0.9168324,-1.280679
520,2024-05-15 21:11:30.448940,-0.020012695,-0.33655494,0.4419877,4.6558623,0.33910656,-0.73823065
521,2024-05-15 21:11:30.465522,-0.09030118,-0.23209843,0.11153416,4.126242,0.25663975,-0.5513059
522,2024-05-15 21:11:30.482383,-0.12422514,-0.18109047,0.106164895,3.7536142,-0.18379408,-0.44868052
523,2024-05-15 21:11:30.499049,-0.13227904,-0.12178457,0.191829,3.2343788,-1.154459,-0.310625
524,2024-05-15 21:11:30.515611,0.004148973,0.01513155,0.21184167,2.7866144,-1.8502345,-0.4370741
525,2024-05-15 21:11:30.532406,0.0302631,0.113974735,0.3048275,2.7609582,-2.3713026,-0.355829
526,2024-05-15 21:11:30.549023,0.17425688,0.14497001,0.15400012,2.7902796,-1.9406425,-0.4804455
527,2024-05-15 21:11:30.564163,0.18792409,0.13081467,0.1637624,2.7597365,-1.548467,-0.7443393
528,2024-05-15 21:11:30.581858,0.015375607,0.23868799,0.051252022,2.8910725,-2.0689242,-0.8170323
529,2024-05-15 21:11:30.598521,0.008786061,0.33777523,-0.15009521,2.8037188,-2.4073436,-0.66920286
530,2024-05-15 21:11:30.615682,0.08005078,0.4127008,-0.4053791,2.4775167,-2.6975045,-0.57818395
531,2024-05-15 21:11:30.631860,0.044418417,0.4842096,-0.5423257,2.037083,-2.3932936,-0.42363504
532,2024-05-15 21:11:30.649004,0.04637088,0.60138756,-0.8100565,1.8452712,-2.2546272,-0.33322698
533,2024-05-15 21:11:30.665701,0.0605262,0.6831467,-1.0380061,1.2081387,-2.1122956,-0.2312125
534,2024-05-15 21:11:30.682381,0.04002539,0.7553877,-1.169797,0.86483246,-2.0811415,-0.21105394
535,2024-05-15 21:11:30.699009,0.06687169,0.79565716,-1.3118382,0.6094908,-1.7970892,-0.21471913
536,2024-05-15 21:11:30.715647,0.06687169,0.79565716,-1.3118382,0.6094908,-1.7970892,-0.21471913
537,2024-05-15 21:11:30.733156,-0.04807928,0.9042626,-1.6630672,-0.6983717,0.35010216,-0.94714653
538,2024-05-15 21:11:30.748583,-0.27017137,0.9464845,-1.602541,-0.86452705,0.42340598,-0.8304713
539,2024-05-15 21:11:30.766010,-0.32215557,0.95185375,-1.551777,-1.4686728,0.94447404,-0.31429017
540,2024-05-15 21:11:30.777730,-0.3231318,0.94111526,-1.4817021,-1.5993979,1.0599276,-0.23365596
541,2024-05-15 21:11:30.798627,-0.2818861,0.88205343,-1.025315,-2.2377522,1.6420821,0.27275133
542,2024-05-15 21:11:30.815548,-0.22184804,0.8190866,-0.77954936,-2.373975,1.8522198,0.56230146
543,2024-05-15 21:11:30.832330,-0.16571487,0.7639297,-0.70340353,-2.4185681,1.9200258,0.6264423
544,2024-05-15 21:11:30.848798,-0.13276714,0.67631316,-0.5747853,-2.541352,1.9890536,0.73945236
545,2024-05-15 21:11:30.865566,-0.13276714,0.67631316,-0.5747853,-2.6122124,1.9621755,0.81397796
546,2024-05-15 21:11:30.881783,-0.13716017,0.47493544,-0.36559775,-3.0666962,1.7343228,1.3051136
547,2024-05-15 21:11:30.898919,-0.05296042,0.41001618,-0.27456442,-3.0984612,1.6769015,1.3674219
548,2024-05-15 21:11:30.915638,0.12764193,0.27017137,-0.09640261,-3.0276008,1.6145931,1.1921035
549,2024-05-15 21:11:30.932291,0.16766733,0.21525851,-0.0707766,-2.9793425,1.547398,1.0522153
550,2024-05-15 21:11:30.949336,0.108117364,0.05222825,-0.07468152,-2.9750664,1.3378712,0.7333437
551,2024-05-15 21:11:30.965326,-0.040269446,-0.042954076,-0.18792409,-3.285386,1.0690905,0.5983425
552,2024-05-15 21:11:30.982262,-0.18133454,-0.18157859,-0.25528386,-4.095393,0.80153155,0.8341365
553,2024-05-15 21:11:30.998905,-0.053204484,-0.4085518,0.42612398,-5.3146806,0.73189294,1.430341
554,2024-05-15 21:11:31.015922,0.17645338,-0.5381767,1.0160408,-5.0275736,1.9927188,1.2678508
555,2024-05-15 21:11:31.032288,0.18304294,-0.6135904,1.093651,-4.651281,2.9432251,0.89888823
556,2024-05-15 21:11:31.048891,-0.24186075,-0.7849186,0.95551467,-4.9383874,4.784373,0.4260785
557,2024-05-15 21:11:31.065987,-0.5642909,-1.0526494,1.1485639,-6.195548,5.3060517,0.51159966
558,2024-05-15 21:11:31.082104,-0.58259517,-1.067781,1.8971181,-6.3323817,4.7990336,0.655153
559,2024-05-15 21:11:31.098854,-0.43320164,-0.8669218,2.2397742,-5.4392967,4.146019,0.63804877
560,2024-05-15 21:11:31.115551,-0.19500175,-0.53305155,2.0267124,-3.4289393,2.58648,0.5158757
561,2024-05-15 21:11:31.131824,-0.18792409,-0.52426547,1.8356155,-2.7288878,1.8668805,0.46211955
562,2024-05-15 21:11:31.148387,-0.336799,-0.7675905,0.91670954,-2.2084305,0.3843106,0.46395215
563,2024-05-15 21:11:31.165485,-0.19353738,-0.9718665,0.4419877,-4.0104833,0.36720636,0.6062838
564,2024-05-15 21:11:31.182155,-0.11568313,-1.0084751,0.6819264,-4.6115746,0.8485682,0.5867361
565,2024-05-15 21:11:31.198847,-0.06028214,-1.0084751,1.2915815,-5.0104694,1.9768363,0.41508293
566,2024-05-15 21:11:31.215517,-0.047103047,-0.81322926,1.8073049,-3.3458617,2.7147615,-0.38881573
567,2024-05-15 21:11:31.227111,-0.047103047,-0.81322926,1.8073049,-3.3458617,2.7147615,-0.38881573
568,2024-05-15 21:11:31.238850,-0.13398743,-0.78101367,1.6769783,-3.163213,2.6341274,-0.45112398
569,2024-05-15 21:11:31.249950,-0.47542354,-0.8115209,0.9125605,-2.4411702,1.3830752,-0.6087272
570,2024-05-15 21:11:31.265502,-0.5567251,-0.88205343,0.74123234,-3.3586898,0.0978148,-0.22449298
571,2024-05-15 21:11:31.282124,-0.52621794,-0.9120724,0.81396145,-3.7441459,0.047112983,-0.10293079
572,2024-05-15 21:11:31.298807,-0.45858356,-0.9252516,1.1124434,-4.152815,0.5431356,0.03145956
573,2024-05-15 21:11:31.315473,-0.47054234,-0.9718665,1.4324025,-3.8235583,1.4001795,0.29352075
574,2024-05-15 21:11:31.332126,-0.49568027,-0.97381896,1.4585166,-3.5804338,1.3610841,0.40530908
575,2024-05-15 21:11:31.348798,-0.46151224,-0.9779679,1.4341109,-3.3061554,1.1497247,0.514654
576,2024-05-15 21:11:31.366361,-0.46151224,-0.9779679,1.4341109,-3.3061554,1.1497247,0.514654
577,2024-05-15 21:11:31.381986,-0.46151224,-0.9779679,1.4341109,-3.3061554,1.1497247,0.514654
578,2024-05-15 21:11:31.398826,-0.46151224,-0.9779679,1.4341109,-3.3061554,1.1497247,0.514654
579,2024-05-15 21:11:31.415382,-0.46151224,-0.9779679,1.4341109,-3.3061554,1.1497247,0.514654
580,2024-05-15 21:11:31.432741,-0.33899552,-0.81225306,1.7016281,-2.133294,1.0128909,0.28496864
581,2024-05-15 21:11:31.448701,-0.33899552,-0.81225306,1.7016281,-2.133294,1.0128909,0.28496864
582,2024-05-15 21:11:31.465612,-0.33899552,-0.81225306,1.7016281,-2.133294,1.0128909,0.28496864
583,2024-05-15 21:11:31.482441,-0.33899552,-0.81225306,1.7016281,-2.133294,1.0128909,0.28496864
584,2024-05-15 21:11:31.498986,-0.33899552,-0.81225306,1.7016281,-2.133294,1.0128909,0.28496864
585,2024-05-15 21:11:31.515617,-0.5284144,-0.71218956,1.8451338,1.1378893,-1.4214071,0.38148534
586,2024-05-15 21:11:31.531437,-0.5110864,-0.73317844,1.7748454,1.3834571,-1.7628807,0.3912592
587,2024-05-15 21:11:31.548356,-0.5567251,-0.7583164,1.735064,1.8251126,-2.0493765,0.4083634
588,2024-05-15 21:11:31.565033,-0.530855,-0.80541945,1.6332921,2.254551,-2.227749,0.40530908
589,2024-05-15 21:11:31.581644,-0.54086137,-0.81884265,1.6384172,2.404213,-2.3309853,0.40408736
590,2024-05-15 21:11:31.598706,-0.51718783,-0.846177,1.6091304,2.6314547,-2.627866,0.41386122
591,2024-05-15 21:11:31.615782,-0.4368625,-0.88522613,1.585701,2.866638,-3.0011046,0.2764165
592,2024-05-15 21:11:31.631954,-0.42636803,-0.90645915,1.6020528,2.9179506,-3.0560825,0.21960606
593,2024-05-15 21:11:31.649638,-0.36779428,-1.0109156,1.6852763,3.1348078,-3.0505848,-0.013133603
594,2024-05-15 21:11:31.665349,-0.23649146,-1.106342,1.8358595,3.4982727,-2.6950612,-0.29657507
595,2024-05-15 21:11:31.681657,-0.19134088,-1.2518002,1.9044397,4.225813,-2.3248768,-0.6918049
596,2024-05-15 21:11:31.698669,-0.21940747,-1.3050046,1.8688073,4.501924,-2.2778401,-0.7828238
597,2024-05-15 21:11:31.714028,-0.30751213,-1.370412,1.586433,4.914869,-2.6217573,-0.8512407
598,2024-05-15 21:11:31.733106,-0.18621568,-1.3306307,1.5119957,4.821407,-3.1690924,-0.97524637
599,2024-05-15 21:11:31.748687,-0.16693515,-1.3125703,1.555926,4.870276,-3.334637,-1.1334605
600,2024-05-15 21:11:31.766038,-0.19134088,-1.2940221,1.4863392,5.443878,-3.1110604,-1.5537357
601,2024-05-15 21:11:31.781981,-0.1803583,-1.2581456,1.3970143,5.5196257,-3.0023263,-1.6667458
602,2024-05-15 21:11:31.798587,-0.24161668,-1.1861488,1.144415,5.573382,-3.1978033,-1.8512272
603,2024-05-15 21:11:31.815104,-0.2796896,-0.9848015,0.85886794,5.161048,-3.6730564,-1.7486018
604,2024-05-15 21:11:31.831911,-0.268463,-0.91378087,0.80371106,4.801248,-3.9754345,-1.6502525
605,2024-05-15 21:11:31.848585,-0.12032023,-0.75416744,0.75392336,4.423733,-4.1171556,-1.6417004
606,2024-05-15 21:11:31.865244,-0.04881145,-0.6814383,0.74660164,4.3217187,-3.9986475,-1.7724255
607,2024-05-15 21:11:31.881941,-0.08078295,-0.53671235,0.5196284,4.167781,-2.8874836,-1.9862283
608,2024-05-15 21:11:31.898289,-0.10396838,-0.49226347,0.47273886,4.030947,-2.500195,-1.9031507
609,2024-05-15 21:11:31.914940,-0.1769415,-0.3065359,0.4229512,4.0645447,-1.9876791,-1.4816537
610,2024-05-15 21:11:31.931740,-0.117391534,-0.25845662,0.31703037,4.035223,-1.8765017,-1.3448198
611,2024-05-15 21:11:31.948055,0.09200958,-0.17572121,0.12520137,3.7157407,-1.970575,-1.3368785
612,2024-05-15 21:11:31.964857,0.110557936,-0.13154685,0.060770255,3.4610097,-1.9357556,-1.4223998
613,2024-05-15 21:11:31.975275,0.11006982,-0.12129646,0.04637088,3.3932037,-1.9223166,-1.4352279
614,2024-05-15 21:11:31.990290,-0.020500809,0.024649782,0.16229807,3.006526,-1.8752799,-1.4792101
615,2024-05-15 21:11:32.006872,0.016839951,0.16644704,0.0039049159,2.9857566,-1.698129,-1.3918564
616,2024-05-15 21:11:32.029762,-0.020988923,0.31068486,-0.21989559,2.494621,-1.6657531,-1.1921035
617,2024-05-15 21:11:32.048052,0.0134231495,0.39488465,-0.35046622,2.0822868,-1.7005725,-1.0412198
618,2024-05-15 21:11:32.065268,0.061258372,0.4737151,-0.4053791,1.83733,-1.7378353,-1.0192287
619,2024-05-15 21:11:32.082941,0.033435844,0.5794224,-0.53744453,1.5685493,-1.8917733,-1.0601566
620,2024-05-15 21:11:32.098934,-0.038561042,0.67777747,-0.7446492,1.4421002,-2.0964131,-1.071763
621,2024-05-15 21:11:32.115816,-0.1564407,0.79077595,-1.0782754,1.4347697,-2.070757,-1.0137309
622,2024-05-15 21:11:32.131911,-0.17791773,0.8422721,-1.2947541,1.3816245,-1.9070449,-0.95081174
623,2024-05-15 21:11:32.148350,-0.18743597,0.8947444,-1.6149879,1.0560333,-1.2833515,-0.88239485
624,2024-05-15 21:11:32.164777,-0.29433304,0.93501383,-1.9015111,0.2667954,-0.30841058,-0.7693848
625,2024-05-15 21:11:32.181860,-0.3738957,0.96356845,-1.9129817,-0.27137688,0.09353874,-0.59895337
626,2024-05-15 21:11:32.198285,-0.4097721,0.9457524,-1.6772224,-1.2890784,0.4930446,-0.18234327
627,2024-05-15 21:11:32.215058,-0.2884757,0.90377444,-1.050697,-1.8455766,0.5755114,0.11759156
628,2024-05-15 21:11:32.231983,-0.10030753,0.8779044,-0.68753976,-2.107027,1.5046375,0.48716503
629,2024-05-15 21:11:32.248508,-0.07492557,0.8681421,-0.63579965,-2.0642664,1.7453184,0.47678033
630,2024-05-15 21:11:32.265126,-0.06638357,0.83373004,-0.58820844,-2.012343,2.0721312,0.43768495
631,2024-05-15 21:11:32.281881,-0.11202228,0.7671024,-0.5464747,-2.0642664,2.2566125,0.43096542
632,2024-05-15 21:11:32.299196,-0.17328064,0.6814383,-0.51865214,-2.2811236,2.0562487,0.5513059
633,2024-05-15 21:11:32.314631,-0.30092257,0.5730769,-0.39195594,-2.5621216,1.7141643,0.7254025
634,2024-05-15 21:11:32.331776,-0.3648656,0.5728329,-0.3448529,-2.6201537,1.7385988,0.98440933
635,2024-05-15 21:11:32.348069,-0.25894472,0.44369608,-0.37316352,-2.8748846,2.0360901,1.4395039
636,2024-05-15 21:11:32.364614,-0.16083373,0.36681804,-0.29262465,-3.1797063,2.0757964,1.4822645
637,2024-05-15 21:11:32.380482,-0.039537273,0.18816814,-0.12080834,-3.258508,1.8619937,1.4150693
638,2024-05-15 21:11:32.398204,0.011958805,0.041977845,-0.08029483,-3.399618,1.2230285,1.2513574
639,2024-05-15 21:11:32.414879,-0.079562664,-0.1637624,-0.10396838,-3.8803687,0.4808273,1.212873
640,2024-05-15 21:11:32.431971,-0.08956901,-0.35095432,0.17035197,-4.4515276,0.28779387,1.557401
641,2024-05-15 21:11:32.448254,0.006345488,-0.4720067,0.2923806,-4.6244025,0.45333838,1.6630806
642,2024-05-15 21:11:32.464567,0.24723,-0.6343353,0.5228011,-5.0013065,1.5064701,1.5714508
643,2024-05-15 21:11:32.481982,0.2633378,-0.71438605,0.6199359,-5.529705,3.1044936,1.2965615
644,2024-05-15 21:11:32.497914,0.08712844,-0.85886794,1.0548459,-5.6952496,3.8302014,1.2043208
645,2024-05-15 21:11:32.514540,-0.10982577,-0.95282996,1.5925345,-5.3812647,4.6176066,1.0308352
646,2024-05-15 21:11:32.531719,-0.16717921,-0.94306767,1.7026043,-5.072167,4.5919504,0.9447031
647,2024-05-15 21:11:32.547903,-0.25430766,-0.95551467,1.6215774,-4.4521384,3.6976438,0.88422745
648,2024-05-15 21:11:32.565045,-0.30092257,-0.9977366,1.38774,-4.513836,3.0812807,0.95081174
649,2024-05-15 21:11:32.581704,-0.21794313,-0.98675394,1.5202936,-4.522999,1.9805015,1.0870347
650,2024-05-15 21:11:32.598103,-0.18792409,-0.97650355,1.5468959,-3.9365683,1.3971251,1.108415
651,2024-05-15 21:11:32.614554,-0.09542638,-0.9567349,1.3391726,-3.5248451,1.3763558,1.1163563
652,2024-05-15 21:11:32.631686,-0.12422514,-1.0331249,1.1065861,-3.484528,1.5797739,1.1365148
653,2024-05-15 21:11:32.649343,-0.048567392,-1.0607033,1.0653404,-3.956727,1.9059759,1.1511755
654,2024-05-15 21:11:32.665060,-0.013667206,-1.0585068,1.2310553,-4.051411,2.0336468,1.0919216
655,2024-05-15 21:11:32.681687,0.01415532,-1.0328808,1.4324025,-3.7300959,2.001271,0.70524395
656,2024-05-15 21:11:32.698344,0.01415532,-1.0328808,1.4324025,-3.6635115,1.9719493,0.6411031
657,2024-05-15 21:11:32.715471,-0.11202228,-0.9762595,1.3953058,-3.1833715,1.6964492,0.2648101
658,2024-05-15 21:11:32.727135,-0.36632994,-0.9787001,1.0607033,-3.049592,1.1442269,0.15607607
659,2024-05-15 21:11:32.748334,-0.37633628,-1.0011533,1.0611913,-3.308599,1.1356748,0.29352075
660,2024-05-15 21:11:32.765026,-0.34753752,-0.9948079,1.1810235,-3.4307718,1.4820354,0.364992
661,2024-05-15 21:11:32.781647,-0.25650415,-0.9757714,1.3953058,-3.4490979,2.0611358,0.34666604
662,2024-05-15 21:11:32.793122,-0.23380683,-0.94257957,1.5278594,-3.339142,2.2944863,0.2501493
663,2024-05-15 21:11:32.814483,-0.31361356,-0.8964527,1.7443382,-2.6335928,1.6842319,0.0888809
664,2024-05-15 21:11:32.831355,-0.37413976,-0.7983418,1.8239008,-2.2133174,1.1246793,0.10415252
665,2024-05-15 21:11:32.848304,-0.38194957,-0.75489956,1.7819229,-1.898111,0.68913233,0.14080444
666,2024-05-15 21:11:32.864956,-0.38146147,-0.74611354,1.794858,-1.4124732,0.21876612,0.22327125
667,2024-05-15 21:11:32.881628,-0.3431445,-0.6982783,2.0091403,-0.84436846,0.6622543,0.20189096
668,2024-05-15 21:11:32.897779,-0.40952805,-0.6492228,2.101882,-0.082619525,0.9273698,0.18967366
669,2024-05-15 21:11:32.914415,-0.50840175,-0.64556193,2.049898,0.31322116,0.53458345,0.21899518
670,2024-05-15 21:11:32.931161,-0.5891847,-0.6323828,1.9491022,0.83367836,-0.8105418,0.3747658
671,2024-05-15 21:11:32.948254,-0.51718783,-0.61969185,1.8473302,1.15255,-1.870393,0.52015173
672,2024-05-15 21:11:32.964933,-0.49937165,-0.6675271,1.7985189,1.3755158,-2.0133355,0.5299256
673,2024-05-15 21:11:32.981898,-0.48396555,-0.7204875,1.7792383,2.1158845,-1.739057,0.6001751
674,2024-05-15 21:11:32.998275,-0.47395915,-0.7446492,1.7804586,2.3761132,-1.7017943,0.63194007
675,2024-05-15 21:11:33.014916,-0.456143,-0.7849186,1.7714285,2.5752552,-1.8056413,0.6453791
676,2024-05-15 21:11:33.031574,-0.46834585,-0.8317776,1.7499515,2.9411635,-2.3658047,0.600786
677,2024-05-15 21:11:33.047700,-0.4378387,-0.89669687,1.7960784,3.229492,-2.77203,0.5714644
678,2024-05-15 21:11:33.064896,-0.37633628,-0.9704022,1.8153588,3.3382258,-2.858773,0.5225952
679,2024-05-15 21:11:33.081553,-0.33045352,-1.0267794,1.9078566,3.7126863,-2.8050168,0.2434298
680,2024-05-15 21:11:33.098211,-0.34973404,-1.1551535,2.1084716,4.525137,-2.0823634,-0.13836098
681,2024-05-15 21:11:33.114856,-0.38097337,-1.2107985,2.0647852,5.0266576,-1.7787633,-0.22204952
682,2024-05-15 21:11:33.131023,-0.3841461,-1.3013438,1.6977232,5.435937,-1.8807777,-0.3368922
683,2024-05-15 21:11:33.148177,-0.3807293,-1.2776701,1.460225,5.1085134,-3.0353131,-0.46639562
684,2024-05-15 21:11:33.164801,-0.37584817,-1.2447225,1.4685229,5.0126076,-3.4855208,-0.5910121
685,2024-05-15 21:11:33.181471,-0.38316986,-1.2017684,1.4919524,5.124396,-3.7219255,-0.7877107
686,2024-05-15 21:11:33.198074,-0.32239962,-1.1678444,1.3599174,5.4732,-3.130608,-0.9086621
687,2024-05-15 21:11:33.215195,-0.24161668,-1.1112231,1.2156796,5.648518,-2.5655577,-0.95142263
688,2024-05-15 21:11:33.231438,-0.16986385,-1.029708,0.96966994,5.645464,-2.0701458,-0.96486163
689,2024-05-15 21:11:33.248115,-0.076633975,-0.8124971,0.69681394,4.760931,-1.9760727,-0.9728029
690,2024-05-15 21:11:33.264764,-0.09396204,-0.6980342,0.641657,4.274071,-2.5979335,-0.9783007
691,2024-05-15 21:11:33.281468,-0.09542638,-0.5718566,0.7429407,3.9032762,-3.3047047,-1.0381655
692,2024-05-15 21:11:33.299100,-0.055645052,-0.48518583,0.6973021,3.9283216,-3.3083699,-1.1242975
693,2024-05-15 21:11:33.314732,-0.027822526,-0.45077375,0.6301863,3.9570324,-2.9925525,-1.1957687
694,2024-05-15 21:11:33.331483,0.09786696,-0.34924594,0.4724948,3.9625301,-2.3047183,-1.4853189
695,2024-05-15 21:11:33.348090,0.14472595,-0.28676724,0.35241866,3.8171442,-2.1269565,-1.9361374
696,2024-05-15 21:11:33.364780,0.043198135,-0.2626056,0.31385764,3.6937494,-2.305329,-2.0253236
697,2024-05-15 21:11:33.381443,-0.35363895,-0.07834238,0.319715,3.401145,-3.1367166,-1.6166549
698,2024-05-15 21:11:33.393215,-0.28432667,0.07590181,0.21159762,3.1842878,-3.339524,-0.94042706
699,2024-05-15 21:11:33.414743,-0.12056428,0.13227904,0.05906185,3.1219795,-3.0420325,-0.6814202
700,2024-05-15 21:11:33.431426,0.18231077,0.29555333,-0.3687705,2.6833782,-2.007227,-0.7431176
701,2024-05-15 21:11:33.448038,0.17938207,0.34070393,-0.25333142,1.9136881,-1.643762,-1.131017
702,2024-05-15 21:11:33.464738,0.118855886,0.33582276,-0.16180995,1.7854064,-1.8752799,-1.2837334
703,2024-05-15 21:11:33.481424,-0.09835507,0.47444725,-0.053936653,1.7701348,-2.2222514,-1.3735305
704,2024-05-15 21:11:33.498065,-0.06760386,0.5618503,-0.39976576,2.0798435,-2.2711205,-1.235475
705,2024-05-15 21:11:33.514438,-0.010006348,0.624573,-0.5406173,1.8947513,-1.6834682,-1.3790283
706,2024-05-15 21:11:33.531393,0.07150877,0.68021804,-0.7768647,1.7432567,-1.4678328,-1.5378532
707,2024-05-15 21:11:33.548073,-0.018304294,0.6919328,-0.9601517,1.4140003,-1.6761379,-1.8579466
708,2024-05-15 21:11:33.564177,-0.21501444,0.74513733,-1.0260471,1.2563971,-1.9760727,-1.8939877
709,2024-05-15 21:11:33.581934,-0.3192269,0.7900438,-1.114884,1.0994047,-2.1031327,-1.6716328
710,2024-05-15 21:11:33.598004,-0.41904628,0.9020661,-1.4187354,0.8190176,-0.91011286,-1.1328496
711,2024-05-15 21:11:33.614227,-0.45052966,0.9511216,-1.6957707,0.15622878,0.10636691,-0.6789767
712,2024-05-15 21:11:33.631319,-0.46541715,0.923055,-1.6786869,-0.63300914,0.51137054,-0.30207285
713,2024-05-15 21:11:33.647447,-0.43979117,0.8603323,-1.3628461,-1.5658003,0.51320314,0.112704635
714,2024-05-15 21:11:33.664589,-0.3746279,0.8447127,-0.9535622,-1.8724546,0.7770969,0.39187005
715,2024-05-15 21:11:33.681310,-0.33875147,0.83006924,-0.8510581,-1.912161,1.2126439,0.5348125
716,2024-05-15 21:11:33.697964,-0.3380193,0.7746682,-0.7998061,-1.9897408,1.7489835,0.7058548
717,2024-05-15 21:11:33.714533,-0.33875147,0.7527031,-0.79126406,-2.0838141,1.9591212,0.80481493
718,2024-05-15 21:11:33.731276,-0.38439015,0.7070644,-0.794925,-2.3843598,2.2205715,1.0613784
719,2024-05-15 21:11:33.747949,-0.36510965,0.62017995,-0.739768,-2.8651106,2.060525,1.3539828
720,2024-05-15 21:11:33.764340,-0.34631723,0.598947,-0.7029154,-3.036153,1.9615647,1.4486669
721,2024-05-15 21:11:33.781304,-0.10909359,0.4368625,-0.30726805,-3.3910656,1.7520379,1.6190983
722,2024-05-15 21:11:33.797959,-0.00097622897,0.3441207,-0.15400012,-3.2560644,1.7734182,1.4749341
723,2024-05-15 21:11:33.814578,0.012935034,0.21818718,-0.061014313,-3.0776918,1.6152041,1.2647965
724,2024-05-15 21:11:33.831283,-0.12422514,0.14692247,-0.09322987,-3.0098858,1.5791631,1.2586879
725,2024-05-15 21:11:33.847969,-0.24625377,0.013911263,-0.26919514,-3.3421965,1.6121497,1.5635096
726,2024-05-15 21:11:33.864092,-0.30043447,-0.29604146,-0.40171823,-4.0220895,1.4826463,1.8829921
727,2024-05-15 21:11:33.881246,-0.22990192,-0.4097721,-0.24088451,-5.4283013,1.0690905,2.364354
728,2024-05-15 21:11:33.897921,0.08175918,-0.73854774,0.85764766,-6.3971334,1.3861296,2.6771169
729,2024-05-15 21:11:33.914383,0.33069757,-0.79028785,1.7775298,-5.4673967,2.6823857,2.296548
730,2024-05-15 21:11:33.932245,0.39293218,-0.7622213,1.8814982,-4.328133,3.5907423,1.6502525
731,2024-05-15 21:11:33.947959,0.10884953,-0.7929725,1.4065324,-3.629914,4.254142,0.8854492
732,2024-05-15 21:11:33.964363,-0.14716652,-0.83690286,1.4128779,-4.482071,4.1790056,0.6771441
733,2024-05-15 21:11:33.981248,-0.16058967,-0.85545117,1.5322524,-4.668996,4.0708823,0.6814202
734,2024-05-15 21:11:33.997717,0.050031736,-0.8020026,2.2558823,-3.9445095,3.1411455,0.41386122
735,2024-05-15 21:11:34.014532,0.11543907,-0.5840595,1.9146901,-2.5175283,2.0837376,0.03756821
736,2024-05-15 21:11:34.031197,0.050763905,-0.5372005,1.5310321,-1.9384282,1.2407436,-0.15241088
737,2024-05-15 21:11:34.047889,-0.19719826,-0.5830833,0.77393603,-2.2120957,0.40385827,-0.0852157
738,2024-05-15 21:11:34.081355,-0.084687866,-0.6194478,1.1475877,-4.059963,0.92798066,0.47983465
739,2024-05-15 21:11:34.096983,0.10543273,-0.5969946,1.6860085,-3.4203873,1.7813594,0.28802297
740,2024-05-15 21:11:34.113714,0.12202863,-0.5803986,1.7069974,-3.1277828,1.891926,0.1518
741,2024-05-15 21:11:34.130812,-0.08078295,-0.5201165,1.2083579,-2.0697641,1.593213,-0.35155296
742,2024-05-15 21:11:34.147488,-0.28359452,-0.5879644,0.74586946,-2.3794727,0.80030984,-0.22632557
743,2024-05-15 21:11:34.164129,-0.33875147,-0.68753976,0.71218956,-3.2004757,0.3488804,0.01740966
744,2024-05-15 21:11:34.180805,-0.3236199,-0.7199994,0.8566714,-3.5957055,0.52236617,0.089491755
745,2024-05-15 21:11:34.197455,-0.35315084,-0.7729598,1.1905417,-3.6769507,1.284726,0.20433442
746,2024-05-15 21:11:34.213992,-0.29945824,-0.82445586,1.357965,-3.421609,2.1619284,0.20861048
747,2024-05-15 21:11:34.231145,-0.30116665,-0.8393434,1.4045799,-3.2365167,2.3940573,0.14935656
748,2024-05-15 21:11:34.247778,-0.35461518,-0.8552071,1.3516195,-2.9298625,2.0794616,0.042455133
749,2024-05-15 21:11:34.264325,-0.37072295,-0.82372373,1.3482027,-2.887102,1.4918092,-0.038179077
750,2024-05-15 21:11:34.281016,-0.38463423,-0.76417375,1.4228842,-2.9078712,1.3384821,-0.023518313
751,2024-05-15 21:11:34.297767,-0.34778157,-0.6848551,1.6432984,-2.813798,1.5443437,-0.020463986
752,2024-05-15 21:11:34.315028,-0.34558508,-0.6814383,1.7316471,-2.3501513,1.8387808,-0.09865474
753,2024-05-15 21:11:34.331719,-0.3443648,-0.6135904,2.2090232,-1.7337883,1.7758616,-0.19272798
754,2024-05-15 21:11:34.347781,-0.40781966,-0.5760056,2.3151882,-0.68554354,1.2370784,-0.27152961
755,2024-05-15 21:11:34.365159,-0.5108423,-0.5389089,2.126776,0.22525656,0.24258986,-0.20433442
756,2024-05-15 21:11:34.381045,-0.5125507,-0.5372005,2.0186586,0.5319109,-0.34200817,-0.09560041
757,2024-05-15 21:11:34.398710,-0.5284144,-0.5537964,1.9456855,0.8379544,-0.9528734,-0.004581489
758,2024-05-15 21:11:34.413965,-0.50010383,-0.59284556,1.9383637,1.016938,-1.1391873,0.052839845
759,2024-05-15 21:11:34.431057,-0.4698102,-0.6172513,1.9110293,1.6949984,-1.4769958,0.129198
760,2024-05-15 21:11:34.447698,-0.44808912,-0.66362214,1.8522114,2.1250474,-1.5472453,0.10781772
761,2024-05-15 21:11:34.464387,-0.4566311,-0.6933971,1.8153588,2.304642,-1.6449838,0.10842858
762,2024-05-15 21:11:34.481051,-0.4566311,-0.6933971,1.8153588,2.304642,-1.6449838,0.10842858
763,2024-05-15 21:11:34.497688,-0.4566311,-0.6933971,1.8153588,2.304642,-1.6449838,0.10842858
764,2024-05-15 21:11:34.514348,-0.4566311,-0.6933971,1.8153588,2.304642,-1.6449838,0.10842858
765,2024-05-15 21:11:34.531005,-0.4566311,-0.6933971,1.8153588,2.304642,-1.6449838,0.10842858
766,2024-05-15 21:11:34.547682,-0.4566311,-0.6933971,1.8153588,2.304642,-1.6449838,0.10842858
767,2024-05-15 21:11:34.564120,-0.311173,-1.16638,2.3515525,5.350416,-1.0732139,-0.18234327
768,2024-05-15 21:11:34.581032,-0.311173,-1.16638,2.3515525,5.350416,-1.0732139,-0.18234327
769,2024-05-15 21:11:34.598058,-0.311173,-1.16638,2.3515525,5.350416,-1.0732139,-0.18234327
770,2024-05-15 21:11:34.614322,-0.311173,-1.16638,2.3515525,5.350416,-1.0732139,-0.18234327
771,2024-05-15 21:11:34.630553,-0.27334413,-1.1265987,1.7162715,5.363244,-4.0426297,-0.37720928
772,2024-05-15 21:11:34.647630,-0.17498904,-1.0348332,1.4699873,5.665622,-3.9210677,-0.59773165
773,2024-05-15 21:11:34.663843,-0.10518867,-0.9211026,1.1200093,5.746257,-3.0212631,-0.9483683
774,2024-05-15 21:11:34.680962,-0.09884319,-0.85789174,1.0160408,5.5403953,-2.8966467,-0.9972375
775,2024-05-15 21:11:34.697630,-0.093717985,-0.74660164,0.9652769,5.3070445,-2.7610345,-0.990518
776,2024-05-15 21:11:34.714807,-0.08688438,-0.65288365,0.76637024,5.0895767,-2.6804004,-0.88056225
777,2024-05-15 21:11:34.730856,-0.08688438,-0.65288365,0.76637024,4.9698467,-2.6376398,-0.84635377
778,2024-05-15 21:11:34.748079,-0.02757847,-0.53744453,0.62774575,4.693125,-2.4849234,-0.8249735
779,2024-05-15 21:11:34.764261,-0.02757847,-0.53744453,0.62774575,4.693125,-2.4849234,-0.8249735
780,2024-05-15 21:11:34.780571,0.0102504045,-0.48640612,0.63775206,4.723668,-1.5588517,-0.7687739
781,2024-05-15 21:11:34.797287,-0.05418071,-0.366574,0.29067218,4.4628286,-1.8331302,-0.7021896
782,2024-05-15 21:11:34.814266,-0.088348724,-0.24332508,0.22306833,3.972915,-2.6113725,-0.6044512
783,2024-05-15 21:11:34.830571,-0.097134784,-0.21232979,0.1969542,3.8941133,-2.818456,-0.5726862
784,2024-05-15 21:11:34.847564,0.0061014313,-0.09322987,-0.10592084,3.4713945,-2.7170522,-0.6612616
785,2024-05-15 21:11:34.863753,-0.036608588,-0.025870068,-0.13032657,3.2447634,-2.4201717,-0.6973027
786,2024-05-15 21:11:34.880888,-0.15692882,0.118855886,-0.1432616,3.1494684,-1.9406425,-0.52870387
787,2024-05-15 21:11:34.897563,-0.23331872,0.28286234,-0.53793263,2.457969,-2.1092412,0.005192355
788,2024-05-15 21:11:34.914552,0.105676785,0.35461518,-0.56746364,1.6125315,-2.5203536,0.09193522
789,2024-05-15 21:11:34.930378,0.1432616,0.3785328,-0.5298788,1.4091134,-2.5472317,-0.043066
790,2024-05-15 21:11:34.947049,0.028066583,0.5210927,-0.5064493,1.4775304,-1.9345338,-0.52320606
791,2024-05-15 21:11:34.963902,-0.09518232,0.5979708,-0.8276287,1.5477798,-1.3597096,-0.57635134
792,2024-05-15 21:11:34.980864,-0.13618395,0.633115,-0.9808966,1.4781412,-1.358488,-0.55924714
793,2024-05-15 21:11:34.997287,-0.23209843,0.70437974,-1.3484468,1.0315987,-1.7274506,-0.37293324
794,2024-05-15 21:11:35.013895,-0.22160399,0.75343525,-1.4638858,0.57894754,-1.4507287,-0.20372356
795,2024-05-15 21:11:35.030849,-0.17450093,0.77320385,-1.5849687,0.4970916,-1.2955688,-0.19394971
796,2024-05-15 21:11:35.047512,-0.22843759,0.83226573,-1.6620909,-0.021533,-0.1483639,-0.0888809
797,2024-05-15 21:11:35.064135,-0.27090356,0.83421814,-1.6362208,-0.77106464,0.58895046,0.21838433
798,2024-05-15 21:11:35.080835,-0.27529657,0.83641475,-1.5029656,-1.1766791,0.8290205,0.41080686
799,2024-05-15 21:11:35.097343,-0.20964517,0.8098125,-1.1939586,-1.653765,1.2486849,0.70096785
800,2024-05-15 21:11:35.113577,-0.14716652,0.7856508,-1.0533816,-1.653765,1.2486849,0.70096785
801,2024-05-15 21:11:35.129419,-0.04368625,0.7414764,-0.7954131,-2.0019581,1.710499,0.8445212
802,2024-05-15 21:11:35.146634,0.04002539,0.69486153,-0.5918693,-2.1271856,2.1387155,0.74372846
803,2024-05-15 21:11:35.163797,0.05735345,0.6340912,-0.4949481,-2.1644483,2.272495,0.61178154
804,2024-05-15 21:11:35.180479,0.04271002,0.60065544,-0.48274526,-2.2120957,2.259056,0.58123827
805,2024-05-15 21:11:35.197096,0.020256752,0.5296347,-0.4497975,-2.415514,2.1539872,0.5946773
806,2024-05-15 21:11:35.213676,-0.10323621,0.46078008,-0.37975308,-2.510809,2.1979694,0.67347896
807,2024-05-15 21:11:35.231716,-0.08639627,0.42734426,-0.39293218,-2.6934576,2.3977225,0.9575313
808,2024-05-15 21:11:35.247343,-0.054424766,0.26504618,-0.37999713,-3.2059736,2.358627,1.0748174
809,2024-05-15 21:11:35.263575,-0.10884953,0.08932495,-0.31190515,-3.8192823,2.1552088,1.2030991
810,2024-05-15 21:11:35.280806,-0.10372432,0.0319715,-0.27602875,-4.1522036,1.9969949,1.2886202
811,2024-05-15 21:11:35.297443,-0.032703668,-0.16058967,0.07590181,-4.7282495,1.7434858,1.3808609
812,2024-05-15 21:11:35.313830,-0.06980037,-0.33704305,0.32728076,-4.8119383,1.9951622,1.3222178
813,2024-05-15 21:11:35.330744,-0.21818718,-0.55965376,0.29604146,-4.8693595,2.1173353,1.3271047
814,2024-05-15 21:11:35.347431,-0.19451363,-0.70950496,0.5196284,-5.8033724,2.5223389,1.6514742
815,2024-05-15 21:11:35.363560,-0.05686534,-0.9469726,1.3306307,-5.9041653,3.2223904,1.6722436
816,2024-05-15 21:11:35.380766,0.02391761,-0.9772358,1.6472033,-5.6469913,3.533321,1.5671748
817,2024-05-15 21:11:35.397430,0.062478654,-0.92354316,1.8190197,-3.9762745,4.273079,0.8744536
818,2024-05-15 21:11:35.413531,-0.14252943,-1.0375179,1.2913374,-3.8577666,4.244368,0.5873469
819,2024-05-15 21:11:35.430738,-0.127886,-1.0511851,1.2293469,-4.210847,4.141132,0.63438356
820,2024-05-15 21:11:35.447398,-0.027334413,-1.0477682,1.4294739,-4.786893,3.6927567,0.66614854
821,2024-05-15 21:11:35.464024,0.19939478,-0.87131494,2.0008423,-3.9756637,2.2517257,-0.074830994
822,2024-05-15 21:11:35.480314,0.13179092,-0.7922403,1.9871751,-3.4161112,1.9695059,-0.28619036
823,2024-05-15 21:11:35.497189,-0.1342315,-0.6336031,1.4509509,-2.225535,1.2633457,-0.5103779
824,2024-05-15 21:11:35.513523,-0.4195344,-0.6846111,0.7595367,-2.2511911,0.8943831,-0.2770274
825,2024-05-15 21:11:35.530731,-0.49201941,-0.74513733,0.6172513,-2.5089762,0.9554696,-0.16035213
826,2024-05-15 21:11:35.547391,-0.505229,-0.77051926,0.5533083,-3.8278344,1.5553392,0.45112398
827,2024-05-15 21:11:35.563810,-0.35461518,-0.9215907,1.2359364,-4.468021,2.2468388,0.89949906
828,2024-05-15 21:11:35.580688,-0.35461518,-0.9215907,1.2359364,-4.468021,2.2468388,0.89949906
829,2024-05-15 21:11:35.597062,-0.30238694,-0.9477048,1.4082408,-4.30492,2.3421338,0.8347474
830,2024-05-15 21:11:35.613532,-0.36559775,-0.96966994,1.1907858,-3.1161764,1.6738471,0.43463063
831,2024-05-15 21:11:35.630429,-0.40635532,-0.99798054,1.1261107,-3.208417,1.3586407,0.39003745
832,2024-05-15 21:11:35.647303,-0.37121108,-0.9713784,1.2288588,-3.4869716,1.4441618,0.41263947
833,2024-05-15 21:11:35.663566,-0.32606047,-0.9406271,1.4882916,-3.575547,1.8937587,0.410196
834,2024-05-15 21:11:35.680607,-0.33045352,-0.9452642,1.5717896,-3.4405458,2.340301,0.22815818
835,2024-05-15 21:11:35.696810,-0.3660859,-0.8942563,1.7318912,-3.1461086,2.110005,0.10598512
836,2024-05-15 21:11:35.714017,-0.375116,-0.79858583,1.8109658,-2.6079364,1.4197272,0.07238753
837,2024-05-15 21:11:35.730649,-0.375116,-0.79858583,1.8109658,-2.3226624,1.0318278,0.08277224
838,2024-05-15 21:11:35.747296,-0.35363895,-0.72976166,1.9259167,-1.7166841,0.6390414,0.021685716
839,2024-05-15 21:11:35.763746,-0.3943965,-0.6526396,2.003283,-0.72341716,0.60483295,0.0290161
840,2024-05-15 21:11:35.780645,-0.41684976,-0.65312773,2.0569754,-0.5169447,0.5645158,0.014966198
841,2024-05-15 21:11:35.797302,-0.4588276,-0.6167632,2.1587474,0.098807454,0.18150334,-0.03145956
842,2024-05-15 21:11:35.813873,-0.60895336,-0.6470263,2.0013304,1.1244502,-1.1098658,0.09865474
843,2024-05-15 21:11:35.830410,-0.6392164,-0.6462941,1.9059042,1.302212,-1.4928783,0.20922135
844,2024-05-15 21:11:35.846976,-0.5801546,-0.6914447,1.7555648,1.5202909,-2.0005074,0.4156938
845,2024-05-15 21:11:35.864527,-0.53793263,-0.731226,1.7931497,1.9540052,-2.0041726,0.50671273
846,2024-05-15 21:11:35.880993,-0.53793263,-0.731226,1.7931497,1.9540052,-2.0041726,0.50671273
847,2024-05-15 21:11:35.896704,-0.47469133,-0.79199624,1.9554478,2.6974282,-1.9009362,0.57879484
848,2024-05-15 21:11:35.913702,-0.46639338,-0.9086556,1.9390959,3.4206927,-2.0176115,0.49327368
849,2024-05-15 21:11:35.930541,-0.4195344,-0.94965726,2.0149977,3.6332738,-1.9479729,0.4297437
850,2024-05-15 21:11:35.947198,-0.45589894,-1.1136637,2.2832165,4.4102945,-1.5093716,0.18295415
851,2024-05-15 21:11:35.963413,-0.5269501,-1.2669317,2.081381,5.1946454,-1.8905516,0.05222898
852,2024-05-15 21:11:35.980282,-0.581863,-1.3216006,2.033302,5.29666,-2.2619576,0.006414085
853,2024-05-15 21:11:35.997141,-0.70193917,-1.3799303,1.9979136,5.478087,-3.1550426,-0.020463986
854,2024-05-15 21:11:36.014460,-0.61700726,-1.421664,1.8734444,5.780465,-3.8801396,-0.05100725
855,2024-05-15 21:11:36.030516,-0.51474726,-1.4162947,1.7670356,5.9197426,-4.029802,-0.17623462
856,2024-05-15 21:11:36.047785,-0.35656762,-1.3662629,1.5259069,5.985716,-4.032856,-0.56413406
857,2024-05-15 21:11:36.063927,-0.3128814,-1.3015878,1.4795055,6.028476,-3.9320633,-0.7528914
858,2024-05-15 21:11:36.080463,-0.31483385,-1.2444785,1.3084214,6.162256,-3.5447748,-0.95814216
859,2024-05-15 21:11:36.096805,-0.28725538,-1.0985322,0.9386747,6.030309,-3.3859496,-0.94714653
860,2024-05-15 21:11:36.130669,-0.15082738,-0.76270944,0.6401926,4.9435797,-3.3676238,-1.1120802
861,2024-05-15 21:11:36.147373,-0.23697957,-0.64897877,0.594798,4.561178,-2.7402651,-1.0351112
862,2024-05-15 21:11:36.164071,-0.2945771,-0.6018757,0.6526396,4.5086436,-2.3914611,-0.8720101
863,2024-05-15 21:11:36.180137,-0.32166746,-0.5979708,0.69486153,4.6039386,-2.0512092,-0.6728681
864,2024-05-15 21:11:36.196811,-0.4698102,-0.55745727,0.67167604,4.9906163,-1.7787633,-0.23182335
865,2024-05-15 21:11:36.213342,-0.19671014,-0.45516676,-0.05662128,4.6466994,-2.3639722,0.2049453
866,2024-05-15 21:11:36.229947,-0.11592719,-0.36974674,-0.31263736,4.118301,-2.6938393,0.20616703
867,2024-05-15 21:11:36.246789,0.033923957,-0.21428227,-0.22331238,2.7719538,-3.2704961,0.03940081
868,2024-05-15 21:11:36.263814,0.084687866,-0.08859278,0.036852647,2.3559546,-3.2631657,-0.21655174
869,2024-05-15 21:11:36.280315,0.0741934,0.020988923,0.17059602,2.330909,-2.6144269,-0.58368176
870,2024-05-15 21:11:36.297064,0.024161667,0.10933765,0.16303024,2.5587618,-2.2802837,-0.8194757
871,2024-05-15 21:11:36.313264,-0.08102701,0.22111587,-0.20134723,2.6925414,-2.5356252,-0.6826419
872,2024-05-15 21:11:36.330440,0.00097622897,0.30214286,-0.34216827,2.5337162,-2.7640889,-0.61300325
873,2024-05-15 21:11:36.347530,0.04881145,0.37706846,-0.42563587,2.1708624,-3.1128929,-0.61117065
874,2024-05-15 21:11:36.363749,0.061258372,0.45199403,-0.52499765,2.140319,-3.0420325,-0.6075055
875,2024-05-15 21:11:36.380425,0.18060236,0.55648106,-0.9813847,1.8953621,-2.2894466,-0.74006325
876,2024-05-15 21:11:36.397042,0.13398743,0.5803986,-1.2417938,1.4451544,-2.0817523,-0.9007208
877,2024-05-15 21:11:36.413253,0.14863087,0.6035841,-1.4856069,1.048092,-2.1147392,-1.185384
878,2024-05-15 21:11:36.430141,0.16913168,0.5889406,-1.5459197,0.99372506,-1.9815705,-1.3961325
879,2024-05-15 21:11:36.446580,-0.17913802,0.65971726,-1.7702082,1.0346531,-0.84047425,-1.7266107
880,2024-05-15 21:11:36.463727,-0.34851375,0.7285414,-2.122871,0.91797775,-0.05673411,-1.6362026
881,2024-05-15 21:11:36.480906,-0.5376886,0.8183544,-2.3986557,-0.3575089,1.0464885,-1.0705414
882,2024-05-15 21:11:36.496609,-0.5552608,0.81322926,-2.2092671,-1.2322679,1.1081859,-0.70341134
883,2024-05-15 21:11:36.513227,-0.3577879,0.7793053,-0.966009,-2.4094052,1.1741594,0.23915374
884,2024-05-15 21:11:36.531454,-0.24552159,0.777841,-0.74879813,-2.34221,1.3537537,0.41263947
885,2024-05-15 21:11:36.547008,0.0019524579,0.74489325,-0.56599927,-2.242639,1.5394567,0.464563
886,2024-05-15 21:11:36.563184,0.02757847,0.6733844,-0.5972386,-1.9372064,2.0745747,0.2134974
887,2024-05-15 21:11:36.580354,-0.08517598,0.67021173,-0.6223765,-1.9604193,2.1087832,0.23426682
888,2024-05-15 21:11:36.597873,-0.16351835,0.63555557,-0.72243994,-2.29273,2.1002312,0.47128254
889,2024-05-15 21:11:36.613651,-0.17157225,0.5835714,-0.6943734,-2.5822802,1.9640081,0.6203337
890,2024-05-15 21:11:36.629851,-0.17108414,0.48665017,-0.52450955,-3.0715833,1.6115389,0.9306532
891,2024-05-15 21:11:36.646476,-0.1164153,0.4424758,-0.41416514,-3.221856,1.483868,1.054048
892,2024-05-15 21:11:36.663165,-0.1164153,0.4424758,-0.41416514,-3.221856,1.483868,1.054048
893,2024-05-15 21:11:36.680171,0.076389916,0.28408262,-0.22184804,-3.3831244,1.8564959,0.95569867
894,2024-05-15 21:11:36.696751,-0.05588911,0.0873725,-0.16815543,-3.526067,2.2511148,0.84940815
895,2024-05-15 21:11:36.713119,-0.21013328,-0.070532545,-0.23673552,-3.9280162,2.0428097,0.9611965
896,2024-05-15 21:11:36.730297,-0.26651052,-0.23087814,-0.29384494,-4.767345,1.3189344,1.2776246
897,2024-05-15 21:11:36.746953,-0.27895743,-0.3414361,-0.21721096,-5.5132117,0.8161923,1.6142114
898,2024-05-15 21:11:36.763623,-0.091033354,-0.6231087,0.2723679,-6.6152124,0.30428725,2.2989914
899,2024-05-15 21:11:36.780290,-0.051740136,-0.9474607,0.9787001,-7.2169147,1.0868056,2.8328876
900,2024-05-15 21:11:36.796909,0.033435844,-1.1158602,1.3813945,-7.2260776,1.7850246,3.079677
901,2024-05-15 21:11:36.813631,0.10323621,-1.1910299,1.8666108,-7.092298,3.9432116,3.29348
902,2024-05-15 21:11:36.830234,0.25333142,-1.127575,2.4194005,-5.486944,6.1068964,2.6667323
903,2024-05-15 21:11:36.846886,0.34704942,-0.9562468,2.429895,-4.138765,6.2968755,2.0112739
904,2024-05-15 21:11:36.863585,0.3018988,-0.5511118,2.1240911,-2.2780693,4.6591454,0.98746365
905,2024-05-15 21:11:36.880219,-0.0741934,-0.59333366,1.0541137,-1.231657,1.4985288,0.5830709
906,2024-05-15 21:11:36.896330,-0.25479576,-0.9967603,0.33020946,-2.7887526,-0.40614903,0.8445212
907,2024-05-15 21:11:36.913375,-0.14179726,-1.0165288,0.4195344,-3.6067011,-0.3132975,0.96486163
908,2024-05-15 21:11:36.930204,0.2072046,-0.9462405,1.289873,-4.4423647,1.1766028,0.91415983
909,2024-05-15 21:11:36.947443,0.30555966,-0.7712514,1.8043762,-3.0440943,2.6286294,-0.06078109
910,2024-05-15 21:11:36.963518,0.20110317,-0.70218325,1.7382368,-2.3348796,2.7844002,-0.39858958
911,2024-05-15 21:11:36.980180,-0.36950266,-0.7336666,0.98455745,-1.3758212,2.295708,-0.73273283
912,2024-05-15 21:11:36.996845,-0.5657552,-0.6990105,0.59870297,-1.3758212,2.295708,-0.73273283
913,2024-05-15 21:11:37.013669,-0.5188962,-0.73879176,0.6638662,-2.6293168,1.1436161,-0.08582657
914,2024-05-15 21:11:37.030188,-0.47762007,-0.7763766,0.944288,-3.4881933,1.2908347,0.25992316
915,2024-05-15 21:11:37.046882,-0.45004156,-0.82714057,1.1390457,-3.4319937,1.5364025,0.2947425
916,2024-05-15 21:11:37.063555,-0.42856455,-0.9020661,1.259854,-2.9964468,1.8907043,0.3191771
917,2024-05-15 21:11:37.080216,-0.34460884,-0.89205974,1.2413056,-2.8376217,2.2040782,0.42730024
918,2024-05-15 21:11:37.096866,-0.30067852,-0.8927919,1.3399048,-2.7832549,2.1784217,0.33505958
919,2024-05-15 21:11:37.114170,-0.30580372,-0.880345,1.387984,-2.7331638,2.0470858,0.2507602
920,2024-05-15 21:11:37.130194,-0.31703037,-0.841784,1.5612953,-2.3843598,1.5809956,0.09315695
921,2024-05-15 21:11:37.146849,-0.20866893,-0.7873592,1.6232858,-1.9622519,1.1497247,-0.07360926
922,2024-05-15 21:11:37.163511,-0.19500175,-0.77173954,1.6354886,-1.7881553,1.0226648,-0.16890424
923,2024-05-15 21:11:37.181071,-0.23380683,-0.72366023,1.6474475,-1.3208433,0.9163742,-0.36010507
924,2024-05-15 21:11:37.196687,-0.27895743,-0.65166336,1.6613587,-1.045954,0.9524153,-0.40103304
925,2024-05-15 21:11:37.213476,-0.2884757,-0.6267695,1.7118785,-0.9317222,0.8974374,-0.41691554
926,2024-05-15 21:11:37.230127,-0.3577879,-0.5725888,1.8336631,-0.6067419,0.56573755,-0.42485678
927,2024-05-15 21:11:37.246829,-0.44394013,-0.51425916,1.9430008,-0.1375974,0.19188805,-0.29840767
928,2024-05-15 21:11:37.263436,-0.47103047,-0.49860895,1.982538,0.06887506,0.06910413,-0.21899518
929,2024-05-15 21:11:37.280110,-0.45248213,-0.49128726,2.0130453,0.626595,-0.15752688,0.003970624
930,2024-05-15 21:11:37.296730,-0.4144092,-0.53231937,2.0272005,1.0267117,-0.38171443,0.11026118
931,2024-05-15 21:11:37.313433,-0.40562314,-0.5450104,2.110424,1.5563319,-0.83253294,0.14630222
932,2024-05-15 21:11:37.330094,-0.39927766,-0.58747625,2.272722,1.9747746,-1.177061,0.13103059
933,2024-05-15 21:11:37.346708,-0.38585448,-0.67167604,2.3134797,2.79761,-1.6058884,0.0027488936
934,2024-05-15 21:11:37.363377,-0.39293218,-0.7180469,2.2736983,3.1537445,-1.6987399,-0.08032878
935,2024-05-15 21:11:37.380065,-0.45248213,-0.8110328,2.1677775,3.604563,-1.8746691,-0.18173242
936,2024-05-15 21:11:37.396599,-0.45174995,-0.9457524,2.199993,4.0419426,-2.1764364,-0.29229903
937,2024-05-15 21:11:37.413390,-0.46590528,-1.0428871,2.2324526,4.3363795,-2.269288,-0.41080686
938,2024-05-15 21:11:37.430200,-0.5364683,-1.1724815,2.140443,4.9576297,-2.3358724,-0.5158757
939,2024-05-15 21:11:37.446700,-0.5215808,-1.2376448,1.9747281,5.2716146,-2.4501042,-0.4437936
940,2024-05-15 21:11:37.463381,-0.4898229,-1.2779143,1.944221,5.3479724,-2.476982,-0.410196
941,2024-05-15 21:11:37.480399,-0.3577879,-1.3401489,1.9947408,5.6668444,-2.410398,-0.41386122
942,2024-05-15 21:11:37.496435,-0.26065314,-1.3435657,1.6750259,6.187912,-2.4861453,-0.5531385
943,2024-05-15 21:11:37.512959,-0.23844394,-1.3179396,1.4304501,6.1225495,-2.6443594,-0.5928447
944,2024-05-15 21:11:37.529913,-0.23844394,-1.3179396,1.4304501,5.8421626,-2.8392253,-0.6600399
945,2024-05-15 21:11:37.546640,-0.03099527,-1.0751027,1.4382598,5.713881,-2.5899923,-1.1200215
946,2024-05-15 21:11:37.563351,-0.033435844,-1.0416669,1.3955499,5.8977513,-2.1776583,-1.208597
947,2024-05-15 21:11:37.580037,-0.23502712,-0.9813847,1.140266,6.3229136,-1.1550698,-1.1224649
948,2024-05-15 21:11:37.596985,-0.23502712,-0.9813847,1.140266,6.3229136,-1.1550698,-1.1224649
949,2024-05-15 21:11:37.613329,-0.23502712,-0.9813847,1.140266,6.3229136,-1.1550698,-1.1224649
950,2024-05-15 21:11:37.629976,-0.23502712,-0.9813847,1.140266,6.3229136,-1.1550698,-1.1224649
951,2024-05-15 21:11:37.646650,-0.23502712,-0.9813847,1.140266,6.3229136,-1.1550698,-1.1224649
952,2024-05-15 21:11:37.663304,-0.23502712,-0.9813847,1.140266,6.3229136,-1.1550698,-1.1224649
953,2024-05-15 21:11:37.679952,-0.23502712,-0.9813847,1.140266,6.3229136,-1.1550698,-1.1224649
954,2024-05-15 21:11:37.696630,-0.23502712,-0.9813847,1.140266,6.3229136,-1.1550698,-1.1224649
955,2024-05-15 21:11:37.713295,-0.23502712,-0.9813847,1.140266,6.3229136,-1.1550698,-1.1224649
956,2024-05-15 21:11:37.729972,-0.23502712,-0.9813847,1.140266,6.3229136,-1.1550698,-1.1224649
957,2024-05-15 21:11:37.746903,-0.14252943,-0.60968554,0.3385074,4.375475,-2.5539513,0.006414085
958,2024-05-15 21:11:37.762865,-0.05832968,-0.08395569,-0.14911897,3.5269833,-1.9956204,-0.16707164
959,2024-05-15 21:11:37.779972,0.0053692595,0.033435844,-0.21672285,3.283248,-2.0670917,0.083383106
960,2024-05-15 21:11:37.796456,0.21403822,0.14301755,-0.47591165,2.716365,-2.4983625,-0.04062254
961,2024-05-15 21:11:37.814143,0.21403822,0.14301755,-0.47591165,2.716365,-2.4983625,-0.04062254
962,2024-05-15 21:11:37.829767,0.122272685,0.2933568,-0.57063633,2.026698,-2.0487657,-0.2837469
963,2024-05-15 21:11:37.846371,0.08346757,0.40000984,-0.5447663,1.7359263,-1.6321555,-0.37720928
964,2024-05-15 21:11:37.862823,-0.027090356,0.42807645,-0.513527,1.7347046,-1.8288542,-0.3717115
965,2024-05-15 21:11:37.879903,-0.01586372,0.5218249,-0.6748488,1.8153389,-2.2308035,-0.21777347
966,2024-05-15 21:11:37.896592,0.02318544,0.6001673,-0.90597105,1.7188221,-2.4592671,-0.3100141
967,2024-05-15 21:11:37.913257,-0.117147475,0.68021804,-1.0812042,1.8257235,-2.3798547,-0.39920044
968,2024-05-15 21:11:37.929906,-0.17962612,0.7058441,-1.2791345,1.8580993,-2.0139463,-0.3827071
969,2024-05-15 21:11:37.946044,-0.21452633,0.70950496,-1.8441576,1.2838861,-1.4317918,-0.32528573
970,2024-05-15 21:11:37.963163,-0.22258021,0.70486784,-1.910053,1.021214,-1.3303882,-0.3136793
971,2024-05-15 21:11:37.980456,-0.25162303,0.72024345,-1.922988,0.07742717,-0.9815841,-0.3387248
972,2024-05-15 21:11:37.996572,-0.40049794,0.75563174,-1.7758216,-0.5163339,-0.34811684,-0.17134771
973,2024-05-15 21:11:38.012696,-0.45760733,0.7697871,-1.6262144,-1.2744176,-0.05551238,0.23304509
974,2024-05-15 21:11:38.029869,-0.44686884,0.73317844,-1.4746244,-1.6397151,0.13446671,0.4541783
975,2024-05-15 21:11:38.046541,-0.2796896,0.6645984,-1.221049,-1.9372064,0.85956377,0.7644979
976,2024-05-15 21:11:38.063791,-0.09445015,0.6131023,-1.1739459,-2.0911446,1.5999324,0.6789767
977,2024-05-15 21:11:38.079825,-0.056377225,0.5828392,-1.1634514,-2.2346978,1.842446,0.605062
978,2024-05-15 21:11:38.096445,0.06028214,0.48616204,-1.0321486,-2.709951,1.9273562,0.3454443
979,2024-05-15 21:11:38.112989,0.044662476,0.44491637,-0.85691553,-2.8632782,1.8815414,0.22693644
980,2024-05-15 21:11:38.129816,-0.113974735,0.43954712,-0.60382813,-2.9103148,1.987221,0.2434298
981,2024-05-15 21:11:38.146484,-0.19304928,0.44833317,-0.60163164,-3.072805,2.391003,0.5702427
982,2024-05-15 21:11:38.163732,-0.2403964,0.32947728,-0.58503574,-3.6402986,2.571819,0.9263771
983,2024-05-15 21:11:38.179811,-0.22160399,0.26529023,-0.4886026,-3.946953,2.5125651,1.0906999
984,2024-05-15 21:11:38.196489,-0.099575356,0.09640261,-0.30848834,-4.373337,2.259667,1.1866057
985,2024-05-15 21:11:38.213148,0.020988923,-0.054424766,0.044174362,-4.5517097,2.2413409,1.0974194
986,2024-05-15 21:11:38.230002,0.011470691,-0.12178457,0.08664032,-4.522388,2.2059107,0.77366084
987,2024-05-15 21:11:38.246482,-0.111046046,-0.25845662,0.08712844,-4.6378417,2.07824,0.58184916
988,2024-05-15 21:11:38.262597,-0.2362474,-0.39659303,0.11373068,-5.09538,1.9346865,0.76083267
989,2024-05-15 21:11:38.279756,-0.24454537,-0.4058672,0.119099945,-5.1338644,1.9316323,0.7828238
990,2024-05-15 21:11:38.296445,-0.19500175,-0.6633781,0.46688148,-6.080705,2.259056,1.2318097
991,2024-05-15 21:11:38.312638,-0.15058333,-0.73854774,0.7348869,-6.2041,2.5858688,1.2366967
992,2024-05-15 21:11:38.329536,-0.12935033,-0.84398043,1.1395339,-6.010456,3.2046754,1.1120802
993,2024-05-15 21:11:38.345947,-0.12690976,-0.88839895,1.4238604,-5.42036,3.6835938,0.8524625
994,2024-05-15 21:11:38.362592,-0.5811308,-1.0873055,1.0106715,-5.009248,4.2297072,0.54825157
995,2024-05-15 21:11:38.379751,-0.56770766,-1.1468556,1.1944467,-5.7135754,4.1301365,0.7626653
996,2024-05-15 21:11:38.396439,-0.37536004,-1.2220252,2.0613687,-6.44417,3.7171915,1.0143417
997,2024-05-15 21:11:38.412810,-0.11861181,-1.1314799,2.4982615,-6.2212043,3.4685693,0.90377516
998,2024-05-15 21:11:38.429728,0.00976229,-0.93843067,2.7933266,-4.0043745,2.7782915,-0.0070249503
999,2024-05-15 21:11:38.445994,-0.12544543,-0.6770453,1.944465,-2.3189971,1.5852717,-0.2751948
